time,seconds_elapsed,z,y,x
1743927024815166500,0.02316650390625,2.617023158070445,0.8182090650081634,-0.9765944041732698
1743927024825212400,0.03321240234375,2.3718951358020304,0.8724059346199036,-0.7768686082296073
1743927024835258400,0.04325830078125,2.020723152306676,0.8798954135924577,-0.5821200892418623
1743927024845303300,0.05330322265625,1.5836141760677098,0.8543991532862186,-0.41801969689819957
1743927024855349200,0.063349365234375,1.191454933145642,0.8212994322389364,-0.3259551246523857
1743927024865394400,0.07339453125,0.977190251174569,0.672491265040636,-0.34421335999649016
1743927024875440400,0.0834404296875,0.8430529988855123,0.4574824867039919,-0.4096116417760029
1743927024885486300,0.093486328125,0.812318253403902,0.26895284223109484,-0.4864628627989441
1743927024895531500,0.103531494140625,0.8575497262716293,0.18277707229554652,-0.5082672097846865
1743927024905577500,0.113577392578125,0.8125988239109516,0.012486118216067552,-0.525403930285573
1743927024915621600,0.12362158203125,0.7630027260929345,-0.14910042814314364,-0.590739229831472
1743927024925667600,0.13366748046875,0.7059937216699123,-0.3299440481580794,-0.7103121693909168
1743927024935713500,0.143713623046875,0.7242951020359992,-0.3932577056832611,-0.7427985808454454
1743927024945758500,0.153758544921875,0.7795815204501152,-0.4665712175667286,-0.7691698704205453
1743927024955804400,0.163804443359375,0.6348457172572612,-0.6840333804048597,-0.6991176984205841
1743927024965849300,0.173849365234375,0.44963060415983197,-0.5980243453383446,-0.6542270018145442
1743927024975895300,0.183895263671875,0.19558160881102085,-0.477573965357244,-0.5983793693210929
1743927024985940500,0.1939404296875,-0.0223690681964159,-0.46950507906153793,-0.5606731773916631
1743927024995986400,0.203986328125,-0.08097147929072379,-0.5373296381399035,-0.4781026288738474
1743927025006032400,0.214032470703125,0.058035424861311906,-0.5684928381666541,-0.4021628236074
1743927025016077600,0.22407763671875,0.2696259191870689,-0.48029286892712114,-0.4471757583536207
1743927025026123500,0.23412353515625,0.4067424795478582,-0.3693910924054682,-0.5615576686086132
1743927025036168400,0.24416845703125,0.5609925455391407,-0.3337663829252124,-0.5217958958562463
1743927025046214400,0.25421435546875,0.627639731401205,-0.419567620459944,-0.34754140844065695
1743927025056260400,0.26426025390625,0.5679898570805788,-0.5090624518156052,-0.20856787683526054
1743927025066305300,0.27430517578125,0.3326379634171724,-0.715822749505937,-0.10071156895672902
1743927025076351500,0.2843515625,0.12958441129028797,-0.7463363995827734,-0.09331515682879835
1743927025086396400,0.294396484375,0.007163315758109092,-0.835122644277662,-0.21672471540905533
1743927025096442400,0.3044423828125,-0.056775195667147636,-0.9693203945823013,-0.2989100822678767
1743927025106488600,0.314488525390625,-0.16883739427030087,-1.173936665981263,-0.3253806492326781
1743927025116533500,0.324533447265625,-0.2978589109808206,-1.3014790500499307,-0.24785646085161714
1743927025126579500,0.334579345703125,-0.19846213268339633,-1.3910805566504596,-0.16414256925126536
1743927025136624400,0.344624267578125,-0.08744856635034083,-1.394666306182742,-0.3197134537838399
1743927025146670300,0.35467041015625,-0.17319149782657622,-1.2728522366330026,-0.6431351144358516
1743927025156716300,0.36471630859375,-0.5471645111948251,-1.1105937823615968,-0.958322542162612
1743927025166761500,0.374761474609375,-1.1024988848417996,-0.7946066556245088,-1.0649283019907771
1743927025176807400,0.384807373046875,-1.6951386145323515,-0.5243104359604418,-0.9710920804299413
1743927025186852400,0.394852294921875,-2.236798683091998,-0.5681089534156024,-0.796696905902028
1743927025196898600,0.404898681640625,-2.5304823542147874,-0.939255218925327,-0.7281666097071021
1743927025206944500,0.414944580078125,-2.5895728410869836,-1.3316690211303532,-0.48573023767545814
1743927025216989400,0.424989501953125,-2.3897908579766747,-1.6539670845799148,-0.339427148633264
1743927025227035600,0.43503564453125,-1.870492843350768,-1.8600402767889201,-0.17003378271432593
1743927025237080300,0.445080322265625,-1.1845248416215182,-1.7366957828015088,-0.06616159430220722
1743927025247126300,0.455126220703125,-0.7137754615873098,-1.3982500098884105,0.06251673499383031
1743927025257172200,0.465172119140625,-0.7230623453706503,-0.8486161859706044,0.3303316592361778
1743927025267217400,0.475217529296875,-0.9882195947110652,-0.3043374593451619,0.5159932374594732
1743927025277263400,0.485263427734375,-1.2927245195776222,-0.05005114810913801,0.5552548056047409
1743927025287308500,0.49530859375,-1.420694481408596,0.31553149192407726,0.57988739828635
1743927025297354500,0.5053544921875,-1.3117325869083403,0.7624108976796269,0.526100899573788
1743927025307400400,0.515400390625,-1.1853601234018802,1.1046551860928535,0.469384484889172
1743927025317445600,0.525445556640625,-1.1384341215759515,1.4102211643196643,0.4068545616202056
1743927025327491600,0.53549169921875,-1.0583920320898295,1.5477306695207953,0.42203086876831947
1743927025337536300,0.545536376953125,-0.8518348557561636,1.5674936468720435,0.43748749069515613
1743927025347582500,0.55558251953125,-0.4062596644669771,1.4772316305361688,0.3890706657895818
1743927025357628400,0.56562841796875,0.16339198834598062,1.3013318966642022,0.29997751056998967
1743927025367673300,0.57567333984375,0.7357476394206285,1.1436615008354187,0.30070757841020823
1743927025377719300,0.58571923828125,1.2318056482344866,0.9790282802566885,0.306494564313814
1743927025387764500,0.595764404296875,1.6146131254434584,0.916741919952631,0.3401472796013579
1743927025397810400,0.605810546875,1.9156459902852772,0.8007467658147215,0.40636323443930594
1743927025407856400,0.6158564453125,2.067836785659194,0.6334855348199605,0.4599427393376827
1743927025417901600,0.625901611328125,2.07506147621572,0.5157622417151928,0.44261948328875
1743927025427947500,0.635947509765625,1.8526473900586367,0.5389072627201676,0.34186654114201664
1743927025437992400,0.645992431640625,1.540468861824274,0.5738850525990128,0.1420778360299766
1743927025448038400,0.656038330078125,1.1825509112000465,0.6521762067645788,-0.21396394545882938
1743927025458083300,0.666083251953125,0.88720193721354,0.830816471516341,-0.3219417608251795
1743927025468129300,0.67612939453125,0.6532622484356164,0.8150891794219612,-0.374132807039842
1743927025478175500,0.686175537109375,0.5539882197350263,0.8291422546938061,-0.4018158002680167
1743927025488220400,0.696220458984375,0.5055418764740228,0.7341727913193404,-0.42926483860984443
1743927025498266400,0.706266357421875,0.4502577961474657,0.6416017673887312,-0.47615525766573846
1743927025508311600,0.7163115234375,0.4445458482414484,0.47176878620982166,-0.41139947504084556
1743927025518357500,0.726357421875,0.46160511959195133,0.23127251539528368,-0.30596944446116686
1743927025528403500,0.736403564453125,0.5699018281817436,-0.026577918063104153,-0.2037796379117295
1743927025538448400,0.746448486328125,0.7380290283560752,-0.23550284644141792,-0.15072591045312583
1743927025548494300,0.756494384765625,0.9382067327857017,-0.4115263528235256,-0.07851663348451256
1743927025558539300,0.766539306640625,1.1339771421670912,-0.4686364795334637,0.041723683942481875
1743927025568585500,0.77658544921875,1.2382160997986793,-0.6834567495606839,0.04101049417182803
1743927025578631400,0.78663134765625,1.312361532461643,-0.772567550034821,0.03190579855497926
1743927025588676400,0.79667626953125,1.4972259324252604,-0.7454578631825745,0.07802402766197919
1743927025598722600,0.80672265625,1.7194120550453662,-0.5974893616788088,0.1908110334083438
1743927025608767500,0.816767578125,1.725900832542777,-0.5755803122095763,0.17715375252105295
1743927025618813400,0.8268134765625,1.4945844780057669,-0.4369816965974867,0.14793182275518774
1743927025628859400,0.836859375,1.0560568671405315,-0.2390644844457507,0.3158319727079943
1743927025638904300,0.846904296875,0.4028127388834953,-0.19040742104351518,0.3811197433177382
1743927025648950300,0.8569501953125,-0.13581249202489853,-0.15230214679390192,0.4253242112252861
1743927025658995500,0.866995361328125,-0.6299573606938124,-0.39583807756528255,0.48443997866921124
1743927025669041400,0.87704150390625,-0.7209189036011695,-0.6177439219392836,0.5314013806020841
1743927025679087400,0.88708740234375,-0.6537450635164975,-0.8342956919342279,0.5475819694219157
1743927025689132500,0.897132568359375,-0.504929882055521,-0.9827331261239945,0.5670339811278506
1743927025699178500,0.907178466796875,-0.20896716008484362,-1.029417135887593,0.5127582741262391
1743927025709223400,0.917223388671875,0.18647241968214512,-0.9746960962712764,0.41831316341944036
1743927025719269600,0.92726953125,0.4777385082691908,-0.933536110626161,0.2854773125851527
1743927025729315600,0.937315673828125,0.621845365908742,-0.8139182359464466,0.222110317437537
1743927025739360300,0.9473603515625,0.4563455916285515,-0.6738169606864451,0.11777594574061222
1743927025749406500,0.957406494140625,0.028662615382671355,-0.3929322731211781,0.06743000680282711
1743927025759451400,0.967451416015625,-0.48005321495234965,-0.11257526269182562,0.0190859491642972
1743927025769497300,0.977497314453125,-0.9505138411730527,-0.09061053751260041,-0.11491096649724059
1743927025779543300,0.987543212890625,-1.1749135481894015,-0.22491920084580777,-0.20655777912186457
1743927025789588500,0.99758837890625,-1.3386030581772326,-0.45625791334509846,-0.2399991166810505
1743927025799634400,1.007634521484375,-1.3717916265517471,-0.6959383377321064,-0.18249167948290704
1743927025809679600,1.0176796875,-1.4229612572968005,-0.9358537399187683,-0.1482534559249878
1743927025819725600,1.0277255859375,-1.5555080255240201,-1.213581717018783,-0.1312644641985651
1743927025829771500,1.037771484375,-1.6915151633381842,-1.2393407199144362,-0.3219074566967785
1743927025839816400,1.04781640625,-1.7573948719590902,-0.8988146335959434,-0.45175019012968987
1743927025849862400,1.0578623046875,-1.7494921360105276,-0.4739394082471728,-0.5022489358758554
1743927025859907300,1.0679072265625,-1.776390079808235,-0.011351122836768627,-0.4567773341093212
1743927025869953300,1.077953369140625,-1.865427376654744,0.37915333861559625,-0.41300482787825166
1743927025879999500,1.08799951171875,-1.9689374354898928,0.5849149806573987,-0.462539697028324
1743927025890044400,1.09804443359375,-1.959179427063465,0.7303408119410276,-0.520401190094836
1743927025900090400,1.10809033203125,-1.8600339931786058,0.8560515966683626,-0.5244405651461332
1743927025910135600,1.118135498046875,-1.6212527095884084,0.8488678226441144,-0.4393304516807198
1743927025920182300,1.128182373046875,-1.1948556814998388,0.717014589639008,-0.31304172093495725
1743927025930228200,1.138228271484375,-0.5592839880555868,0.6819558434784412,-0.1608608989657834
1743927025940273400,1.1482734375,0.1086953525185585,0.7829103726118802,-0.017295783520117403
1743927025950319400,1.1583193359375,0.6674982790589332,0.86442107334584,-0.008327208438329398
1743927025960364300,1.1683642578125,1.0473433993309735,0.9330188087537884,-0.14638784471619873
1743927025970410200,1.17841015625,1.2422066307395696,0.9390554585695267,-0.24328133495580404
1743927025980456400,1.18845654296875,1.2794921130388974,1.0159642184659838,-0.30074918906223025
1743927025990501400,1.19850146484375,1.2735913645625114,1.0995505564302206,-0.3225264653779566
1743927026000547300,1.20854736328125,1.2440712555676698,1.0049109095320106,-0.25326792797371744
1743927026010592300,1.21859228515625,1.2386328639060258,0.6818991448551416,-0.17891495350729672
1743927026020638200,1.22863818359375,1.320860480737686,0.2978901829019189,-0.14109043242782354
1743927026030684200,1.23868408203125,1.459171219319105,0.12271774039119482,-0.16889062229488044
1743927026040729300,1.248729248046875,1.6079513294667005,0.11328004996031522,-0.229913721197471
1743927026050775300,1.258775390625,1.768126109331846,0.19173837738633154,-0.2859326551372185
1743927026060820200,1.2688203125,1.7819278401911258,0.3056006111487746,-0.19755502777583897
1743927026070866400,1.278866455078125,1.5662462771594523,0.3905518077254295,-0.005147299760580063
1743927026080912400,1.288912353515625,1.2986550786703823,0.46797553140670056,0.1365330796507187
1743927026090957300,1.298957275390625,0.9563953004270791,0.44798225243091583,0.07183892755256965
1743927026101003500,1.30900341796875,0.5312327825695276,0.4048702559351921,-0.09336423840122297
1743927026111048200,1.319048095703125,0.16942600781321523,0.4150628563866019,-0.2619104311726056
1743927026121094100,1.32909423828125,-0.031763504007458684,0.3849491654127836,-0.2725720739078708
1743927026131139300,1.339139404296875,0.010530746364593505,0.2960731966078281,-0.16030715580685062
1743927026141185300,1.349185302734375,0.27766543325781823,0.12408347578644752,-0.09107444696361199
1743927026151231200,1.359231201171875,0.5993284136742353,-0.010516279447823762,-0.0953673949171789
1743927026161276400,1.3692763671875,0.8066179959356784,-0.04554711468815803,-0.12797922284966334
1743927026171322400,1.379322265625,0.8619102595686912,0.03051160425022244,-0.10244769030064343
1743927026181367300,1.3893671875,0.7751409076541662,0.07680383821725845,-0.09763294696267694
1743927026191413500,1.39941357421875,0.6870189720869064,0.002690261997282505,-0.21393429923923685
1743927026201459500,1.40945947265625,0.7409054605752229,0.023808599480241537,-0.3918485695376992
1743927026211504000,1.419504150390625,0.7721750435858964,0.0022118308305740355,-0.6489446044322102
1743927026221550300,1.42955029296875,0.86070029925704,-0.1334394792832434,-0.6873971577495336
1743927026231595300,1.43959521484375,0.899555807352066,-0.29227263528108594,-0.5576200734313577
1743927026241641200,1.44964111328125,0.9447884492635726,-0.3415688733696937,-0.5383436374880373
1743927026251687200,1.459687255859375,1.0101865118473767,-0.33898470209538933,-0.5631406634837388
1743927026261732400,1.469732421875,1.0453086786329746,-0.3971681571252644,-0.5644914205055683
1743927026271778300,1.4797783203125,1.0339414814442396,-0.4639173420570791,-0.7043491693332791
1743927026281823500,1.489823486328125,0.9570908814758062,-0.5753197615772485,-0.704902273171395
1743927026291869400,1.499869384765625,0.8044751386880874,-0.8304144665867089,-0.5351048016972839
1743927026301915400,1.509915283203125,0.6148825411587954,-1.1392381314352154,-0.40457171138003467
1743927026311960300,1.519960205078125,0.4186959521919489,-1.3757665215320884,-0.42481428894177076
1743927026322006300,1.53000634765625,0.2391711596906185,-1.4871937832325697,-0.510842394034937
1743927026332051200,1.54005126953125,-0.0668459233045578,-1.35789228053689,-0.5258989472609013
1743927026342097400,1.550097412109375,-0.43036067102253434,-1.057927191057056,-0.48514483900293703
1743927026352143400,1.560143310546875,-0.7103460716605186,-0.741509563948214,-0.4325733786359429
1743927026362188300,1.570188232421875,-1.122295472201705,-0.5383709638863802,-0.30711043118983505
1743927026372234200,1.580234130859375,-1.6318682116270065,-0.5783467081829905,-0.2180593798126094
1743927026382279400,1.590279541015625,-1.9515847341507673,-0.49742885877564547,-0.23614983910806475
1743927026392325400,1.600325439453125,-1.9517922394216058,-0.09004208997488021,-0.22039293732671067
1743927026402371300,1.610371337890625,-1.9199182607769965,0.06968392320945858,-0.3133626234523952
1743927026412416300,1.620416259765625,-1.9719015459924936,-0.15422171667963266,-0.4270623235968873
1743927026422462200,1.630462158203125,-2.0227058505564925,-0.5810397466592491,-0.4192611117940396
1743927026432507400,1.64050732421875,-1.9513211147785186,-0.9621405660808086,-0.2782696827612817
1743927026442553300,1.65055322265625,-1.7018448341727255,-1.0624537285707891,-0.0028164456602185963
1743927026452599300,1.660599365234375,-1.4699258375674484,-1.0681161382466553,0.27037198831401765
1743927026462644200,1.670644287109375,-1.2937626304537058,-0.9565414308995008,0.3710993941606954
1743927026472690400,1.6806904296875,-1.1317805089056492,-0.7592576943457127,0.30645675305407494
1743927026482735400,1.6907353515625,-1.1539590229660273,-0.5089129603423178,0.31236389473862947
1743927026492781300,1.70078125,-1.189532440650463,-0.3283868818439543,0.21650672527682036
1743927026502827500,1.71082763671875,-1.2726637283235787,-0.25992957782000303,0.2140768677813932
1743927026512872200,1.7208720703125,-1.3140566459417342,-0.20455811147093772,0.2540830802815035
1743927026522918100,1.730918212890625,-1.2308388490289448,-0.03391366777867079,0.354971229647845
1743927026532963300,1.74096337890625,-1.096774661976099,0.3791910402774811,0.5343096692642196
1743927026543009300,1.75100927734375,-0.9786462952017784,0.8922428539901971,0.666447381766513
1743927026553054200,1.76105419921875,-0.88901103246212,1.2262874693349004,0.7540376216098665
1743927026563100400,1.771100341796875,-0.7363403446167707,1.316186643707752,0.7928939334224909
1743927026573146400,1.781146484375,-0.49001229890882964,1.2542512887984514,0.8372982347510755
1743927026583191300,1.79119140625,-0.04607961412966251,1.197160743571818,0.8057501270599663
1743927026593237500,1.801237548828125,0.5381172813862561,1.1468263946071267,0.7694846354581415
1743927026603282200,1.8112822265625,1.1181629024416209,1.0287085492268204,0.7089787288300693
1743927026613328100,1.821328125,1.6563924120306968,0.9030629386901855,0.6627382250502705
1743927026623374300,1.831374267578125,2.0408102470457554,0.8882081916466354,0.6609641280498355
1743927026633419300,1.841419189453125,2.213831064480543,0.9007496933117508,0.6765067842923105
1743927026643465200,1.85146533203125,2.115079013827443,0.8019201935082674,0.6522606701776384
1743927026653510400,1.861510498046875,1.7965876491844652,0.6202092891395091,0.5594334795288741
1743927026663556400,1.871556396484375,1.5038380440413952,0.46036388735920186,0.41588969913218166
1743927026673602300,1.881602294921875,1.3186404666006564,0.40264615014493466,0.3160413776749745
1743927026683647500,1.8916474609375,1.2303466815978288,0.42578152653872964,0.2603753853587433
1743927026693693400,1.901693359375,1.1863877128839493,0.4352174634039402,0.09567048778329044
1743927026703738000,1.911738037109375,1.2250468216240404,0.5242863244324922,-0.13147855447381734
1743927026713784300,1.921784423828125,1.2766571818739174,0.6275041223227977,-0.2906765251960605
1743927026723830300,1.931830322265625,1.3409323779076336,0.6163590434521437,-0.30606541564892975
1743927026733875200,1.941875244140625,1.3468155907273291,0.45708881121128797,-0.2357260972706601
1743927026743921200,1.951921142578125,1.3523627034604548,0.25416443842202424,-0.14694814548008142
1743927026753966300,1.96196630859375,1.376284846317768,0.15954057361483573,-0.10641202735435216
1743927026764012300,1.97201220703125,1.1773650329947472,0.10432590526267886,-0.18294055576156823
1743927026774058200,1.982058349609375,0.9320645767688751,0.027631080377846954,-0.27981983481273054
1743927026784103400,1.992103515625,0.8654851954460143,-0.030368834778666493,-0.29610092486497014
1743927026794149400,2.0021494140625,1.030699138522148,-0.11801467726677656,-0.24745332341082393
1743927026804194300,2.0121943359375,1.3547212492853402,-0.27880671224743125,-0.20053630860894917
1743927026814240300,2.022240234375,1.6735171498328447,-0.4772916412845254,-0.20224077443927524
1743927026824286200,2.0322861328125,1.9520845003664493,-0.6297852189972997,-0.3871328295947984
1743927026834331400,2.042331298828125,2.0064350992351767,-0.7484918240509927,-0.5490707832075655
1743927026844377300,2.05237744140625,1.7206664390206337,-0.7497213658459484,-0.4241427463557571
1743927026854422300,2.06242236328125,1.2584767975389957,-0.567960484855622,0.022863317986764012
1743927026864468200,2.07246826171875,0.8325573238343,-0.36534430123269557,0.5432410906733944
1743927026874513400,2.082513427734375,0.4995803377211094,-0.2170963982656598,0.8382080430723726
1743927026884559400,2.092559326171875,0.24673311937749384,-0.22907237500250338,0.7600804089054465
1743927026894605300,2.102605224609375,0.006510989329218864,-0.45781654096394775,0.5142765697347
1743927026904650200,2.112650146484375,-0.3051934916526079,-0.777526633746922,0.3960467884125188
1743927026914696200,2.1226962890625,-0.4813105215370655,-0.9979286494292319,0.2525525097133592
1743927026924740600,2.13274072265625,-0.497719804546237,-1.0912320792876182,0.12499576832577586
1743927026934786600,2.14278662109375,-0.3316927915215492,-1.110775860930234,0.08163228128701448
1743927026944832500,2.15283251953125,-0.19303660050332544,-1.1184108858533204,0.056897762600891286
1743927026954877700,2.162877685546875,-0.2583995917737484,-0.9928352718129754,-0.02494136636983603
1743927026964923600,2.172923583984375,-0.5047229613065719,-0.8299250756345689,-0.005166296721994877
1743927026974968300,2.18296826171875,-0.9031722442835569,-0.6716267571657896,0.1273062006926164
1743927026985014500,2.1930146484375,-1.4434534257054328,-0.4584752971336245,0.3636175139727071
1743927026995060500,2.203060546875,-1.9538596933454273,-0.32374139412567016,0.5780256960676983
1743927027005105400,2.21310546875,-2.1301398048371074,-0.3400793654642999,0.6428038366548716
1743927027015151600,2.223151611328125,-2.2910317930608985,-0.5406906390056013,0.6152263861604035
1743927027025196500,2.233196533203125,-2.35602478197515,-0.9052220164202153,0.5610511073259636
1743927027035242500,2.243242431640625,-2.046107768931985,-1.263293842431903,0.5586368492584676
1743927027045288400,2.253288330078125,-1.5396832644045353,-1.4659715469837187,0.5243368855759502
1743927027055333600,2.263333740234375,-1.10486678301692,-1.4696449747994542,0.42349579022172834
1743927027065379600,2.273379638671875,-0.7555266911238432,-1.2384919941306114,0.18131920163743198
1743927027075424500,2.283424560546875,-0.7655231844812631,-0.9058917323753237,-0.09076203827988356
1743927027085470500,2.293470458984375,-1.1597282540172338,-0.6596371902950108,-0.08610571864033117
1743927027095516400,2.303516357421875,-1.5523872631549833,-0.28447715909928084,0.1098615650200285
1743927027105561600,2.3135615234375,-1.7975895197033882,0.14015885066613554,0.19935206726044416
1743927027115607600,2.323607666015625,-1.976376645579934,0.41608094738796353,0.12209464005678891
1743927027125652500,2.333652587890625,-2.0521341896146534,0.56895724080801,0.010052497860975562
1743927027135698400,2.343698486328125,-1.952631612855196,0.6974941888719797,-0.0018211875451728701
1743927027145744600,2.35374462890625,-1.7158026323765516,0.7828440293774008,0.039098340407572686
1743927027155789600,2.36378955078125,-1.2546826659530401,0.7367801973387599,0.18000011839549987
1743927027165835500,2.37383544921875,-0.5564145700991153,0.6731666800841689,0.21899532722216097
1743927027175880400,2.38388037109375,0.14678747502565384,0.7470569689422846,0.16778024990018456
1743927027185926400,2.393926513671875,0.6023240883588791,0.926307620677352,0.12208024620525539
1743927027195972400,2.403972412109375,0.823411309826374,1.0473857771679758,0.03920402927175164
1743927027206017500,2.414017578125,0.98712887686491,1.0696551843822002,0.04145871286336332
1743927027216063500,2.4240634765625,1.0985714822649955,1.0005041990056633,0.15657251758947968
1743927027226108700,2.434108642578125,1.1773083343714474,0.8550283911004662,0.22188520344477144
1743927027236154600,2.444154541015625,1.1969149521172047,0.5965083878174424,0.16882296388614923
1743927027246199600,2.454199462890625,1.303126086604595,0.3476695283323526,-0.0019718845948576928
1743927027256245500,2.46424560546875,1.5511287875264883,0.2706432795360684,-0.19450144889149815
1743927027266291700,2.474291748046875,1.7648977949351072,0.3637248833373189,-0.31441819691993295
1743927027276336400,2.48433642578125,2.0722271295726298,0.5549979812994599,-0.29248266130257394
1743927027286382300,2.49438232421875,2.041054577195644,0.6504796319797634,-0.030533231560140848
1743927027296427500,2.504427490234375,1.5613748717308042,0.678552464775741,0.35273959813825784
1743927027306473500,2.514473388671875,1.1664444105297327,0.5728419732868671,0.5344298250451683
1743927027316519400,2.52451953125,0.9202829535603523,0.4704918981418013,0.5429354587903246
1743927027326564600,2.534564697265625,0.7834148150026797,0.44938481270521874,0.5026530962299556
1743927027336610600,2.544610595703125,0.7773527384847402,0.4590498821511864,0.35584998524375255
1743927027346655500,2.554655517578125,0.9199187964230775,0.3985110961668193,0.13741353401336817
1743927027356701700,2.56470166015625,1.0281547147363423,0.20679493061229584,0.025738416765350845
1743927027366747600,2.57474755859375,1.0906208155214785,0.08701850437000393,-0.01687384548073169
1743927027376792300,2.584792236328125,1.1214636975526808,0.02142082756087184,-0.08301148808519355
1743927027386838500,2.594838623046875,1.0944015031039713,-0.09673676530793308,-0.16809978244444354
1743927027396883500,2.604883544921875,1.0478267989337444,-0.1523433555871248,-0.22220720194075255
1743927027406929400,2.614929443359375,1.092925000810623,-0.2084275002501905,-0.18763609316665678
1743927027416975600,2.6249755859375,1.0979349379271268,-0.30809593509584665,-0.13574911706564016
1743927027427020500,2.6350205078125,1.120092993721366,-0.3822697170704603,-0.18713397059710696
1743927027437066500,2.64506640625,1.024692007061839,-0.4341610862188041,-0.3355837710781023
1743927027447111700,2.655111572265625,0.9230477420985698,-0.4593770682789385,-0.4683922224488109
1743927027457157600,2.66515771484375,0.8093132263690233,-0.529258852148056,-0.5529615070357918
1743927027467203600,2.67520361328125,0.686754768192768,-0.5007556651107966,-0.502741651296243
1743927027477248500,2.68524853515625,0.5441588996380567,-0.4146685963720083,-0.3513499704107642
1743927027487294500,2.69529443359375,0.4816068741351366,-0.3799760531753301,-0.25822754140878096
1743927027497339400,2.70533935546875,0.61869713101089,-0.4158635052450001,-0.2139209100347012
1743927027507385600,2.715385498046875,0.842524006575346,-0.43944048792645335,-0.21261464974172412
1743927027517431600,2.725431640625,1.0324866064608096,-0.44779345186054703,-0.3760697664517909
1743927027527476500,2.7354765625,1.0216413873195647,-0.5579935098536313,-0.588829962144047
1743927027537522400,2.7455224609375,0.7786690817803144,-0.8115032837592064,-0.686274729590863
1743927027547567600,2.755567626953125,0.3143599639266729,-0.943292073225975,-0.7309170043937862
1743927027557613600,2.765613525390625,-0.39655484753251075,-0.8911359156616031,-0.7488852072827518
1743927027567658500,2.775658447265625,-1.0344178667843342,-0.7304862117610872,-0.6744109810568392
1743927027577704400,2.785704345703125,-1.429157773849368,-0.662692632342875,-0.5189214729310945
1743927027587750400,2.79575048828125,-1.6436515884011982,-0.7204325813889503,-0.3379125793518498
1743927027597795600,2.805795654296875,-1.6021224771827458,-0.7239413201622664,-0.14753090467094443
1743927027607841500,2.815841552734375,-1.4187947852671146,-0.6594327537640929,-0.210153611656744
1743927027617886500,2.825886474609375,-1.290129242387414,-0.5356210806563496,-0.372770103851892
1743927027627932700,2.8359326171875,-1.2576795096814632,-0.37173444066122174,-0.3190698586506769
1743927027637978600,2.845978515625,-1.311831955629587,-0.38382746790647504,-0.036881006851396524
1743927027648023600,2.8560234375,-1.4659072495758532,-0.6060111063085496,0.35982645112667233
1743927027658069500,2.866069580078125,-1.5677958446890115,-0.9268804521292447,0.5530663191171362
1743927027668114400,2.876114501953125,-1.6478601460069418,-1.2043481708578765,0.644505599071458
1743927027678160400,2.886160400390625,-1.6971271580010652,-1.3305217507913707,0.7087529572501778
1743927027688206300,2.896206298828125,-1.616809174183011,-1.4120356663957236,0.657284051297605
1743927027698251500,2.90625146484375,-1.6841577863126993,-1.2514566896438597,0.6604234453018755
1743927027708297500,2.91629736328125,-1.8406290354847907,-0.7071230179607868,0.7779264467194676
1743927027718342700,2.9263427734375,-1.8782798439651727,-0.36322000255510206,0.6807049666345119
1743927027728388600,2.936388671875,-1.744293398323655,-0.0058702072076499455,0.5784034798715263
1743927027738434600,2.9464345703125,-1.5716992818683384,0.405444840952754,0.5473153909076005
1743927027748479500,2.9564794921875,-1.4586422270089388,0.7531634691238402,0.6094296095151454
1743927027758525700,2.966525634765625,-1.3603069404631851,1.0909801503531633,0.7181346066448837
1743927027768570400,2.9765703125,-1.1239531762808561,1.320714204134792,0.8581594556678086
1743927027778616300,2.9866162109375,-0.6782008748590945,1.2603918373800813,0.8868632798437028
1743927027788662500,2.99666259765625,-0.09081015173792839,0.9199662888266146,0.6193840903617441
1743927027798707500,3.00670751953125,0.5017968447268009,0.7052037403360009,0.4961759726377204
1743927027808753400,3.01675341796875,0.8937006515830754,0.6589705430798232,0.6261584068022668
1743927027818798600,3.026798583984375,1.1625509102225302,0.5709370164483786,0.7947621384471655
1743927027828844500,3.036844482421875,1.4068085793972014,0.3959823083415627,0.8322657935418188
1743927027838890500,3.046890380859375,1.5659546007364988,0.2792550405368209,0.6763408531408757
1743927027848935700,3.056935791015625,1.5482050090342758,0.29739187799096106,0.5759119918493554
1743927027858981600,3.066981689453125,1.5170546684890984,0.2989683335274458,0.6376750223990529
1743927027869026300,3.0770263671875,1.5986580159425734,0.16031827998906373,0.6466297516185789
1743927027879072500,3.087072509765625,1.7229425672590732,0.11659808846712112,0.5550647629253566
1743927027889118500,3.097118408203125,1.7301725185126064,0.15355273137688635,0.3798131542311981
1743927027899163400,3.107163330078125,1.5344611458420752,0.2707283274710178,0.1969861418467015
1743927027909209600,3.117209716796875,1.3061685230404139,0.45597442022860046,0.09481827313443646
1743927027919255000,3.127255126953125,1.1931769346326588,0.5398667554020882,0.045129528596904125
1743927027929301000,3.137301025390625,1.1319734011292457,0.5819000167503953,-0.06146494265226647
1743927027939347000,3.147346923828125,1.0450199248194694,0.5979813829794526,-0.04596307507790625
1743927027949392100,3.15739208984375,1.0099170472562313,0.5924770864747464,0.05546067900247872
1743927027959438000,3.16743798828125,1.0717769988417625,0.5786746249631047,0.180642708881665
1743927027969483300,3.177483154296875,1.1618833862245082,0.5459424220539629,0.3055284957606345
1743927027979529200,3.187529296875,1.2369757443487643,0.5346975360706449,0.43729258917756375
1743927027989575200,3.1975751953125,1.299901863861084,0.5120005510941148,0.5544320910450071
1743927027999619800,3.207619873046875,1.4334820667892694,0.4444834505297243,0.5573064774375408
1743927028009666000,3.217666015625,1.4741291344761847,0.34671251986846324,0.5132220557130873
1743927028019711000,3.2277109375,1.206470715969801,0.19110183304846284,0.3888971723861992
1743927028029757000,3.2377568359375,1.1657318783462047,-0.058820437759160994,0.42410424097627397
1743927028039803100,3.24780322265625,1.1057511646360159,-0.21222923062071203,0.3399799967430532
1743927028049848000,3.25784814453125,1.0354840347111225,-0.23834917578324674,0.06316012006443925
1743927028059894000,3.26789404296875,0.8753186071962118,-0.2928162406384945,-0.27764260037150235
1743927028069939200,3.277939208984375,0.6343769307017326,-0.45557504564747214,-0.4378269883152097
1743927028079985200,3.287985107421875,0.44851299830675123,-0.6096667062066495,-0.3116768988551572
1743927028090031000,3.298031005859375,0.34653672491014004,-0.5994761515818536,-0.016588703829841688
1743927028100076000,3.308075927734375,0.1873053633749485,-0.4856717854864895,0.21836608940791338
1743927028110122000,3.3181220703125,-0.10574000984430312,-0.4793826222144067,0.36802301892265676
1743927028120167000,3.3281669921875,-0.36205870369076726,-0.5744910556681454,0.4314174865990877
1743927028130213000,3.338213134765625,-0.4956359840095043,-0.6691271954350173,0.44350200174432247
1743927028140259000,3.348259033203125,-0.5028618436098099,-0.6803276577547193,0.43046128185279664
1743927028150304000,3.358303955078125,-0.43548517442941664,-0.5989340075291693,0.2913635576121509
1743927028160350200,3.36835009765625,-0.4803729484260082,-0.46843043556734915,-0.03360988992596976
1743927028170395100,3.37839501953125,-0.613122545748949,-0.32986835257336494,-0.2506138698009774
1743927028180441000,3.388441162109375,-0.7567465883076191,-0.20973405280411242,-0.3089604795033112
1743927028190487000,3.398487060546875,-0.8072229760915041,-0.10092851790934801,-0.38959330142419785
1743927028200532000,3.408531982421875,-0.9033739043354988,-0.08599223006218672,-0.29020682532507924
1743927028210578000,3.418577880859375,-1.2261737798273562,-0.22068010197132826,0.15228769814344123
1743927028220623000,3.428623046875,-1.5117296740740538,-0.5631440244846045,0.8086416837830096
1743927028230669000,3.4386689453125,-1.5146020146399735,-0.8546597039185464,1.2726448774926364
1743927028240715000,3.448715087890625,-1.26272101098001,-0.9508585629574954,1.2918407224804163
1743927028250760200,3.45876025390625,-1.1184101552009582,-0.8440047466523944,0.6390587318424135
1743927028260806100,3.46880615234375,-1.368735161590576,-0.7322596511743963,-0.1425368683764711
1743927028270851000,3.47885107421875,-1.8555887042075394,-0.6269435658305883,-0.9373848950088024
1743927028280897000,3.48889697265625,-2.456719783389568,-0.5259095417201519,-1.8022440675109623
1743927028290942000,3.49894189453125,-3.0020360363692045,-0.30435426434949037,-1.8440715771540999
1743927028300988000,3.50898779296875,-2.9394547847718,0.1765513296484947,-1.0868543025948108
1743927028311033900,3.519033935546875,-2.486079148864746,0.7380186530925333,-0.3475145569663495
1743927028321079000,3.5290791015625,-2.0675182212293146,1.149898495528847,0.20047707096869125
1743927028331125000,3.539125,-1.543189811220765,1.121182980915159,0.6086207408176735
1743927028341171000,3.5491708984375,-0.8940601325452328,0.8085520327381789,0.616795169847086
1743927028351216000,3.559216064453125,-0.264189281091094,0.5794250049389899,0.4384459969963878
1743927028361262000,3.569261962890625,0.29511341166496274,0.36975539567321536,0.02028285477319732
1743927028371307000,3.57930712890625,0.8855845651447772,0.09280687851309775,-0.4510653862033039
1743927028381353200,3.589353271484375,1.073014431682229,0.1096006307952106,-0.6691128746487199
1743927028391398000,3.59939794921875,1.042394837012887,0.37005379409790035,-0.738444111962989
1743927028401443800,3.60944384765625,1.1391466537594794,0.5593140909329056,-0.45589740946963425
1743927028411490000,3.619489990234375,1.3610206416904926,0.6354650181993842,-0.19739552636519073
1743927028421535000,3.629534912109375,1.5816086814641952,0.6554746637880802,-0.11892397413142025
1743927028431581000,3.639580810546875,1.9043471821576357,0.580358048005402,-0.14832206418178975
1743927028441626000,3.649626220703125,2.1872832492947576,0.40827041976749895,-0.3746999394033104
1743927028451672000,3.659672119140625,2.1526807224690914,0.28494989117756486,-0.626074966302514
1743927028461718000,3.669718017578125,2.0921371141791343,0.06970058208331466,-1.0295796329729259
1743927028471763200,3.67976318359375,2.0647101780712602,-0.044460488495230675,-1.3771394173204898
1743927028481809200,3.68980908203125,1.5588625966489313,0.05535904525890946,-1.5572884792000055
1743927028491854000,3.69985400390625,0.8591431329429149,0.3214665810614824,-1.3296097505129874
1743927028501900000,3.709900146484375,0.462004932564497,0.4925670979581773,-0.8610637988071889
1743927028511946000,3.719946044921875,0.10333411774635315,0.3077338237851858,-0.41094723776131864
1743927028521991000,3.729990966796875,-0.46731180680096146,0.17400032999143003,0.22302140440046786
1743927028532037000,3.740037109375,-0.6441103892087936,0.20565306710079312,0.5745388403326273
1743927028542082000,3.75008203125,-0.17711714683771132,0.5122409357212484,0.842191998142004
1743927028552128000,3.7601279296875,0.5059253228336572,0.8223512793794274,0.9863995396770536
1743927028562174200,3.77017431640625,1.1022364345133304,1.0656558856129645,1.0438844910487532
1743927028572219100,3.78021923828125,1.310769294834137,1.1168231782704592,0.8732323024414479
1743927028582265000,3.79026513671875,1.3662836767852307,0.5891434120073914,0.25488968395665285
1743927028592310000,3.80031005859375,1.3158148877859115,-0.16716566166579722,-0.25469047159012403
1743927028602356000,3.81035595703125,1.0954723472058772,-0.656802697521448,-0.5442264849815517
1743927028612402000,3.82040185546875,0.9528794012606143,-0.7444336347013711,-0.7402118522878736
1743927028622447000,3.830447021484375,0.9833733237236738,-0.6396269601844251,-0.7999686210490763
1743927028632493000,3.8404931640625,1.2081634913623331,-0.2891492425635457,-0.6222085001327097
1743927028642538000,3.8505380859375,1.1677911489635706,0.027911504754424093,-0.3746158413164317
1743927028652584200,3.860584228515625,0.9328624491482973,0.09720087568834423,-0.22471385099943725
1743927028662630100,3.870630126953125,0.72804247187078,0.02266907405629754,-0.14179317386969922
1743927028672675000,3.880675048828125,0.7770844429373741,-0.0621979513682425,-0.10783153876345604
1743927028682721000,3.890720947265625,0.771096016177535,-0.28185470164120197,-0.13232534402888269
1743927028692766000,3.900765869140625,0.8357780394464731,-0.5329423629663884,-0.1351478997694794
1743927028702812000,3.91081201171875,1.0086077182233333,-0.7256590838655829,0.010440803058817982
1743927028712857900,3.92085791015625,0.8695096286565065,-0.9057115535028278,0.33359884433858095
1743927028722903000,3.930903076171875,0.393579631114006,-1.0700867076672613,0.46655302432291207
1743927028732949000,3.940948974609375,-0.09954700042307377,-1.1535375826835632,0.2952281606184318
1743927028742994200,3.950994140625,-0.3584416822373867,-1.1500878806211055,-0.04128603231073357
1743927028753040100,3.9610400390625,-0.5529986241757869,-1.0483818024680018,-0.3082678941292688
1743927028763086000,3.971086181640625,-0.5524491735994815,-1.051250489772111,-0.31236670775022357
1743927028773132000,3.981132080078125,-0.7398644270896911,-0.8211948028206825,-0.40867932936195284
1743927028783178000,3.991177978515625,-0.7784194909334182,-0.1958627638399601,0.009766894985781982
1743927028793223200,4.00122314453125,-0.970066098383069,0.22820289869159457,0.015212766700983047
1743927028803269000,4.01126904296875,-1.0981856978178024,0.22438699366524814,-0.4194766542408615
1743927028813314000,4.02131396484375,-0.987822704347968,0.06293912512436509,-0.7467473184712231
1743927028823360000,4.031360107421875,-0.8218219948083162,-0.09872910816892981,-0.9121018390618264
1743927028833406000,4.041406005859375,-0.927711642256379,-0.523757039861381,-1.2549687894180417
1743927028843451100,4.051451171875,-1.296149233329296,-1.0638178565308452,-1.3671243653930722
1743927028853497000,4.0614970703125,-1.5626801091104745,-1.6731747661359606,-0.8457520287111401
1743927028863542000,4.0715419921875,-1.6977005739748476,-2.0278129644371568,-0.24008979063918812
1743927028873588000,4.081587890625,-1.8674451462179422,-1.8724917620830237,0.09926270358897744
1743927028883634200,4.09163427734375,-2.3099247095793483,-1.4462522626437246,0.17653425064953043
1743927028893679000,4.10167919921875,-2.7840613939642904,-0.9309740050531923,0.217263863787055
1743927028903725000,4.11172509765625,-3.0708301711320876,-0.4901289110258221,0.3543494079550728
1743927028913770000,4.12177001953125,-3.1999621624797583,-0.10070800702646374,0.6510019022881984
1743927028923816000,4.13181591796875,-3.1210458621531725,0.20595921044051646,0.8851824871499091
1743927028933862000,4.14186181640625,-2.9836212587565183,0.3534621402591467,1.0553256302565335
1743927028943907000,4.151906982421875,-2.897014988449216,0.4792091653436422,1.2253506999414414
1743927028953953000,4.161953125,-2.5293793614089486,0.5402848346836865,1.288838618054986
1743927028963998000,4.171998046875,-1.733562160950899,0.5398593027479947,1.2187763630524278
1743927028974044200,4.182044189453125,-0.7530623468369245,0.43310120190232987,1.0541348130367696
1743927028984090000,4.192090087890625,0.032713936600089075,0.29835794654414055,0.6503753678876906
1743927028994135000,4.202135009765625,0.6898726079523563,0.3430930141970515,0.21318079572450369
1743927029004181200,4.21218115234375,1.2289607801973819,0.5824192183189094,0.16627729799132793
1743927029014226000,4.222225830078125,1.6375450882196425,0.8339788810700177,0.38713418130166827
1743927029024272000,4.23227197265625,1.8575807548075913,1.04420290934816,0.6420457848291844
1743927029034318000,4.242318115234375,1.8257751652240752,1.1249819348067045,0.6435441336281598
1743927029044363000,4.252363037109375,1.8042413788080214,1.0144010608024894,0.43760779260657723
1743927029054409000,4.262408935546875,1.704704899778962,0.707497404231131,0.1651019523353316
1743927029064454100,4.2724541015625,1.3066560142964123,0.3440245959587395,0.09945246314057149
1743927029074500000,4.2825,1.2084586749166248,0.22829013858363031,0.4977074565213173
1743927029084546000,4.292546142578125,0.13192249884903431,0.6836984493620694,1.2779501442939043
1743927029094591200,4.30259130859375,0.18850187968313692,0.07717544800862669,0.20752730000745503
1743927029104637200,4.31263720703125,1.1079390300691128,0.864560043425113,0.32827582268491384
1743927029114681900,4.322681884765625,1.4898282233893871,1.3839561115980148,1.3793819355502723
1743927029124728000,4.33272802734375,1.0570195746928452,0.3436509403407573,1.2606585254922509
1743927029134774000,4.34277392578125,0.9485247131824492,0.19481997678875923,0.9211172854926437
1743927029144819000,4.35281884765625,0.8530921623408794,-0.029047961438447234,0.15111269954731688
1743927029154865200,4.362865234375,1.2237567818135022,-0.1466556653395295,-0.42004258102793246
1743927029164910000,4.37291015625,1.901658965986967,0.09637757660672068,-0.5079066693766042
1743927029174956000,4.3829560546875,2.250629055523872,0.31704058131277557,-0.5875402876596898
1743927029185001200,4.393001220703125,2.2571616721630097,0.36075419696345923,-0.7146911151275038
1743927029195047200,4.403047119140625,2.1159826846688983,0.20710940338894723,-0.771717070685327
1743927029205092000,4.413092041015625,2.103941533741355,0.15354323289617894,-0.421698348878324
1743927029215138000,4.423137939453125,2.0806442447841165,0.2228508701391518,-0.14999145869873462
1743927029225184000,4.43318408203125,1.8570488398879765,0.18854381912872195,-0.002798325481638312
1743927029235229000,4.44322900390625,1.4881787026166915,0.06659209467396139,0.02633548760935664
1743927029245275100,4.453275146484375,1.0178852496564388,-0.06194339208528399,-0.07705496343411505
1743927029255320000,4.463320068359375,0.6283218684464693,-0.07336626498401165,-0.13746007656883447
1743927029265366000,4.473365966796875,0.32831776213049885,-0.08129369698241352,-0.17679536753743885
1743927029275412000,4.483411865234375,0.16242518914043902,-0.04447963158711791,-0.1090180816669017
1743927029285457200,4.49345703125,0.1685217524498701,-0.02395093056038022,0.05393913199100643
1743927029295503000,4.503503173828125,0.32200901737511156,-0.11546893830671906,0.16417670898288486
1743927029305548300,4.51354833984375,0.36697920895814895,-0.26822657378315923,0.07665102227572351
1743927029315594000,4.523593994140625,0.18633681060373783,-0.4911452484615147,-0.18295894993478432
1743927029325640000,4.533639892578125,0.11105214477777481,-0.6899656930632889,-0.3317926716994494
1743927029335685000,4.54368505859375,0.24676409903764723,-0.658209057188034,-0.17882553992448375
1743927029345731000,4.55373095703125,0.30565409490168094,-0.65391296742931,-0.07427610983792692
1743927029355776000,4.56377587890625,0.10879004506468773,-0.5755911258645355,0.037943343419861046
1743927029365822000,4.573822021484375,-0.2539350135803223,-0.4168545621089637,0.14113403410753234
1743927029375868200,4.5838681640625,-0.6132189918607474,-0.3592844166718423,0.13574976551961154
1743927029385913000,4.5939130859375,-0.8593541453450918,-0.2849618738763034,0.1904378892470151
1743927029395959000,4.603958984375,-1.1186445484787224,-0.25761560178920623,0.1948171637771651
1743927029406004200,4.614004150390625,-1.4509890819072722,-0.28480273779183624,0.14972016747668385
1743927029416050000,4.6240498046875,-1.7113567588835954,-0.1969739399522543,0.19706359099708495
1743927029426095900,4.634095947265625,-2.1507219896167515,-0.1727431695371866,0.11363752162847668
1743927029436141000,4.64414111328125,-2.6144448320150375,-0.3822714706361294,-0.28540432041417807
1743927029446187000,4.65418701171875,-2.507179804560542,-0.7518819048807025,-0.6121528969991952
1743927029456232200,4.664232177734375,-1.9621599041789768,-0.8809519369080662,-0.5362782293908298
1743927029466278100,4.674278076171875,-1.4239976146072149,-0.960963046734035,-0.3722934262508526
1743927029476324000,4.684323974609375,-1.1028367384940385,-1.049795176397264,-0.19571911758556962
1743927029486369000,4.694369140625,-1.0730272911638021,-0.9616241409912705,0.011490385176986456
1743927029496415200,4.704415283203125,-1.2248194426089525,-0.5944456100687384,0.20925162131572142
1743927029506460200,4.714460205078125,-1.3293909931957721,-0.10608867715150118,0.3787592247314751
1743927029516505900,4.724505859375,-1.348279818060994,0.1797875350907445,0.4338647701533511
1743927029526552000,4.734552001953125,-1.3498194487184285,0.3062453387930989,0.29889420884530987
1743927029536597000,4.744596923828125,-1.1306576423555612,0.5509802700906992,0.35291396832447497
1743927029546643000,4.754642822265625,-0.8543716807574033,0.689168259075284,0.3903208485137671
1743927029556688100,4.764688232421875,-0.8728244522929192,0.6596598405182361,0.20586029837699607
1743927029566734000,4.774734130859375,-0.7294184363991022,0.775562640197575,0.15129584669503382
1743927029576779000,4.784779052734375,-0.32766543570160866,0.8797183034598827,0.10116852807714603
1743927029586825200,4.7948251953125,0.133146487686038,0.7892439595475792,-0.134481307353219
1743927029596871200,4.80487109375,0.7039590009719133,0.6104454354941845,-0.30496556464824826
1743927029606916000,4.814916015625,1.2076128717422485,0.5481505996227264,-0.2734629400666803
1743927029616962000,4.824962158203125,1.4429618427962063,0.5798655883133411,-0.18074848907738922
1743927029627008000,4.835008056640625,1.3903455203741788,0.5591159380123019,-0.1456463786991313
1743927029637053000,4.845052978515625,1.203568564787507,0.4867532971128821,-0.11144628606135956
1743927029647099100,4.85509912109375,1.0622446158647536,0.5271732780456543,-0.03700662882532924
1743927029657144000,4.86514404296875,0.961341524657607,0.3996288481503725,-0.02240512589048594
1743927029667190000,4.87518994140625,0.8683072671294212,0.20805179880559443,0.0036127471370622512
1743927029677235200,4.885235107421875,1.040205218014121,0.27657559219449757,0.18149952664040028
1743927029687281200,4.89528125,1.33467273299098,0.4028840505540371,0.3009497166030109
1743927029697327000,4.9053271484375,1.5240706847310066,0.46983840266913174,0.24204207548443227
1743927029707372300,4.915372314453125,1.6010019487202167,0.47327217651009557,0.10763941372483968
1743927029717418000,4.92541796875,1.5648077687889337,0.42732729467600583,-0.07018851173073053
1743927029727463000,4.935462890625,1.3692290825873612,0.36510800825878975,-0.2361979525661096
1743927029737509000,4.945509033203125,1.1266150889664888,0.334287484189868,-0.277072728061676
1743927029747555000,4.95555517578125,0.9704735101401806,0.28190862378552556,-0.2534047060959041
1743927029757600000,4.96560009765625,1.035291142487526,0.23251360149756073,-0.1580325619383715
1743927029767646000,4.97564599609375,1.2450269488573074,0.10291720750853418,-0.0009943265332840383
1743927029777691100,4.985691162109375,1.3436346226036548,-0.04736132450327277,0.07705222348775714
1743927029787737000,4.995737060546875,1.3439181157201527,-0.08112433176487684,0.13903991137249394
1743927029797783000,5.005782958984375,1.2345154917150736,-0.09524111992269754,0.2027819321112707
1743927029807828200,5.015828125,1.117209547239542,-0.13931991562396287,0.17372016134317964
1743927029817874200,5.025874267578125,0.9713152216613292,-0.16433511441498994,0.08943668969394639
1743927029827919000,5.035919189453125,0.9972609793007373,-0.18468378269970415,-0.0252874763937667
1743927029837965000,5.045965087890625,1.134007537305355,-0.32473654264286156,-0.10134948326777667
1743927029848011000,5.056010986328125,1.2787754892021417,-0.40947599616497754,-0.09203085263930261
1743927029858056200,5.06605615234375,1.3471610431641339,-0.4613827090129256,-0.030886136651039123
1743927029868102100,5.07610205078125,1.222690613886714,-0.5830621923975646,-0.0503555744158104
1743927029878147000,5.08614697265625,0.9171896637201309,-0.7095389930613338,-0.1491548982767388
1743927029888193000,5.096193115234375,0.5022065945714712,-0.6922958895765244,-0.17926738367415965
1743927029898239200,5.1062392578125,0.16820786419510841,-0.7605936191245913,-0.18529362169373778
1743927029908284200,5.1162841796875,-0.100551793551445,-0.9459564701296389,-0.16591372537594287
1743927029918330000,5.126330078125,-0.25863164696395397,-0.9977266971163451,-0.024481786034069954
1743927029928374500,5.13637451171875,-0.3162672588527202,-1.1373296674653888,0.0103065822198987
1743927029938420500,5.14642041015625,-0.37268238903582096,-1.1852810668163,-0.10627367832958698
1743927029948466400,5.156466552734375,-0.397091438627243,-1.1168167485296725,-0.18093411130998283
1743927029958511400,5.166511474609375,-0.3714385264545679,-0.9298200127124786,-0.21283223801515996
1743927029968557300,5.176557373046875,-0.3910048121899366,-0.6369907664619385,-0.15355083168074488
1743927029978602500,5.1866025390625,-0.44914019029438496,-0.4020929001763463,-0.12792893570084124
1743927029988648400,5.1966484375,-0.5694026464879512,-0.27278350643515586,-0.14434289488513022
1743927029998694400,5.2066943359375,-0.7120663195818662,-0.17098624286726116,-0.16314055260187013
1743927030008739600,5.216739501953125,-0.8510048346728086,-0.13086743683815003,-0.09125385865112766
1743927030018785500,5.22678564453125,-0.9735206227511167,-0.14540420397371054,0.05515862731598317
1743927030028830500,5.23683056640625,-1.1276800878494977,-0.29230931402966376,-0.0028909356685355306
1743927030038876400,5.24687646484375,-1.3106465452373026,-0.4774762040711939,-0.3729319068174809
1743927030048922600,5.256922607421875,-1.4415683426111936,-0.6950901964701711,-0.8862230091787874
1743927030058967300,5.26696728515625,-1.2960814287900924,-0.7692363597854971,-1.085085539356619
1743927030069013200,5.27701318359375,-1.0979840377658605,-0.5685875307127833,-0.8970242430478333
1743927030079058400,5.287058349609375,-1.106280741468072,-0.36630890848115083,-0.7021787664916366
1743927030089104400,5.2971044921875,-1.3828081106066703,-0.2391312660716474,-0.46513826215416193
1743927030099150300,5.307150390625,-1.8554127631187438,-0.10888985217735171,-0.1680230639464222
1743927030109195500,5.317195556640625,-2.251653722396493,0.14609437819495796,0.1880331661928445
1743927030119241500,5.327241455078125,-2.420708558809757,0.41690483099147674,0.5665048426872119
1743927030129286400,5.337286376953125,-2.4355104066222903,0.5389733136937022,0.8242112280324101
1743927030139332600,5.34733251953125,-2.3881974513053894,0.4754119650177657,0.8562519415460527
1743927030149378600,5.357378662109375,-2.1678800451666116,0.3598744915194809,0.7255436407923698
1743927030159423200,5.36742333984375,-1.7350334025472403,0.2363026185169816,0.5828127111485227
1743927030169469400,5.377469482421875,-1.106491169348359,0.1942668729506433,0.5025475169636309
1743927030179514400,5.387514404296875,-0.3298012786865234,0.24403335889950392,0.5572133192613721
1743927030189560300,5.397560302734375,0.31466333078742026,0.28178923518955706,0.5125117885518818
1743927030199606500,5.4076064453125,0.6902046163856983,0.3504790327951312,0.28717231646738944
1743927030209651500,5.4176513671875,1.024171782580018,0.6081091015011072,0.2152993953136727
1743927030219697400,5.427697509765625,1.2726058606564998,0.8422668169438838,0.14670843670638278
1743927030229742600,5.43774267578125,1.3710001839131116,1.0380822345107794,0.03689856534097343
1743927030239788500,5.44778857421875,1.4686328751474618,1.0757768821328877,-0.0560671387293376
1743927030249834500,5.45783447265625,1.498935074430704,0.9009028380468487,-0.20157403589254244
1743927030259879400,5.46787939453125,1.4690554844737052,0.652187020419538,-0.3013553930607624
1743927030269925400,5.47792529296875,1.465678116995096,0.5065209506392478,-0.23013923704903572
1743927030279970300,5.48797021484375,1.4993167672246694,0.40048999502435323,-0.08439191872607917
1743927030290016500,5.4980166015625,1.6259937666356563,0.2849880312308669,0.07194451595204882
1743927030300062500,5.5080625,1.7357763298690319,0.11994564532935618,0.18199229685971513
1743927030310107400,5.518107421875,1.790972731912136,-0.03578092295527458,0.2322102711694315
1743927030320153600,5.528153564453125,1.67527889880836,-0.140935680257529,0.24079390205424278
1743927030330198500,5.538198486328125,1.3893196844577789,-0.13230170742496847,0.2512471992684528
1743927030340244500,5.548244384765625,1.1596692173063754,-0.1300808165051043,0.22195549220200628
1743927030350290400,5.55829052734375,0.943098011958599,-0.13380787420421839,0.11265661169919185
1743927030360335400,5.56833544921875,0.8098480638980865,-0.10484525296166539,0.008055387493316083
1743927030370381300,5.57838134765625,0.7088543717980385,-0.06399594070091844,-0.10551356241097673
1743927030380426500,5.588426513671875,0.6543623186320066,-0.034776860479265446,-0.1472129886950366
1743927030390472400,5.598472412109375,0.7650228337436914,-0.024402181459218263,-0.0700090087116696
1743927030400518400,5.608518310546875,0.9457435580313205,-0.03375643139034509,0.006338902431633323
1743927030410563600,5.6185634765625,1.1248854886949062,-0.05409136341065168,0.07606776076136157
1743927030420609500,5.628609619140625,1.1803519398510456,-0.11323694147095084,0.13921375183574855
1743927030430654500,5.638654541015625,1.1291291176140308,-0.23437691115140913,0.1768195338643156
1743927030440700400,5.648700439453125,1.043051255095005,-0.33670448220372196,0.24730268116006626
1743927030450746600,5.65874658203125,0.9972861137419938,-0.3200758573554456,0.43913503870647397
1743927030460791300,5.668791259765625,0.9538450314223765,-0.30089404089301824,0.6017713498469441
1743927030470837200,5.678837158203125,0.9395353510409593,-0.297206438421458,0.6253580502048135
1743927030480882400,5.68888232421875,0.977334043559432,-0.32300255845710635,0.5738445379255339
1743927030490928400,5.698928466796875,1.0101286441802977,-0.4057169358924031,0.47764206215739247
1743927030500974300,5.708974365234375,0.9993407081842421,-0.5218399541936815,0.3758117731027305
1743927030511019500,5.71901953125,1.05449268656373,-0.567114827811718,0.3706142775248736
1743927030521065500,5.7290654296875,1.072494207200408,-0.6427144048057496,0.3756390468843281
1743927030531110400,5.7391103515625,0.9622785132467746,-0.8238415179371833,0.3409569885490462
1743927030541156600,5.749156494140625,0.5762450597286224,-1.0595673594795167,0.18589792599612845
1743927030551202600,5.75920263671875,0.18543372428417204,-1.0603814523413777,0.1844765148908831
1743927030561247200,5.769247314453125,-0.06238543676435947,-0.9661894030801952,0.27852961233910173
1743927030571293400,5.77929345703125,-0.26625615049302576,-0.9535833117462694,0.2730787995873019
1743927030581338400,5.78933837890625,-0.38162674299180505,-0.962910089148581,0.2408142872551456
1743927030591384300,5.79938427734375,-0.35854455808997154,-0.9103525111764669,0.190304070266895
1743927030601430500,5.809430419921875,-0.40759003628790375,-0.7675454840891063,0.12282057971116155
1743927030611475500,5.819475341796875,-0.6247369956970215,-0.6175082134872675,0.03572981838912237
1743927030621521400,5.829521484375,-0.9749275669395923,-0.5031598036430776,-0.011863543038046919
1743927030631566600,5.839566650390625,-1.275882105848193,-0.48043622292056676,-0.14107580111427231
1743927030641612500,5.849612548828125,-1.4237199667096136,-0.5564150084905326,-0.3083145462825894
1743927030651658500,5.859658447265625,-1.5051625706434248,-0.7908243606068194,-0.5015180643180385
1743927030661703400,5.869703369140625,-1.5149690943866967,-1.1552771198272704,-0.733052189791575
1743927030671749400,5.879749267578125,-1.6242068832188843,-1.478709155742824,-0.8405532910242677
1743927030681794300,5.889794189453125,-2.002058199325204,-1.7235680056810379,-0.8678156842201947
1743927030691840500,5.899840576171875,-2.1214882963478563,-1.6676292608380316,-0.4993497803682461
1743927030701886500,5.909886474609375,-1.9913947664916514,-1.1996576749540864,0.27681246969029305
1743927030711931400,5.919931396484375,-1.7475228817641735,-0.848578630439192,0.6982905999466776
1743927030721977600,5.9299775390625,-1.455018191292882,-0.6145173611082136,0.75791972374022
1743927030732022500,5.9400224609375,-1.1392927842319012,-0.1372125680811703,0.8512694769583642
1743927030742068500,5.950068359375,-1.017663131338358,0.559245263480395,0.8953704844914376
1743927030752114400,5.960114501953125,-0.9309206674307584,1.2557108399569987,0.8016025058612227
1743927030762159400,5.970159423828125,-0.8794359793871641,1.6488772140949963,0.3990392847593873
1743927030772205300,5.980205322265625,-0.7073848837673664,1.7897252160690724,-0.023037816037144512
1743927030782250500,5.99025048828125,-0.4489081351041794,2.008490862721205,-0.2654934955574572
1743927030792296400,6.00029638671875,-0.3205290079504251,2.2551471174702047,-0.5083933569150045
1743927030802342400,6.01034228515625,-0.39197102687358854,2.2989069103501736,-0.7490906667269766
1743927030812387600,6.0203876953125,-0.5059159704834223,2.071889275920391,-1.0307428315334022
1743927030822433500,6.03043359375,-0.32687048593163487,1.772871696423739,-1.2282469328396022
1743927030832478500,6.040478515625,-0.010654665005207061,1.5313136415965853,-1.1258131249338388
1743927030842524400,6.0505244140625,0.1209428396731615,1.2285602365724742,-0.7907386550847441
1743927030852570600,6.060570556640625,0.1396773507595062,0.8071399739831685,-0.4874996950333938
1743927030862615300,6.070615234375,0.1151391218304634,0.547181754590571,-0.20133124011261389
1743927030872661200,6.0806611328125,0.07489595876932144,0.662014733081311,0.261371319327224
1743927030882706400,6.09070654296875,0.043591304445266724,0.8750291227303445,0.6759751616336405
1743927030892752400,6.10075244140625,-0.0004354688078165054,0.9219530787296593,0.8190143169764429
1743927030902798300,6.11079833984375,0.030651158851385116,0.8886435143239796,0.756759082463011
1743927030912843500,6.120843505859375,0.20363748949468136,0.8429495385110378,0.6251156197510659
1743927030922889500,6.130889404296875,0.34167759444117546,0.6472640309341251,0.34053963991980996
1743927030932935200,6.14093505859375,0.5028285258620977,0.3996367391958833,-0.017479848549864254
1743927030942981000,6.150981201171875,0.7407143219172954,0.18816563346609472,-0.2746545975366607
1743927030953027300,6.16102734375,1.07739542324543,0.02533931617885828,-0.4271397362146526
1743927030963072000,6.171072021484375,1.4777408952325581,-0.08263371341452003,-0.43337516000550236
1743927030973118000,6.181117919921875,1.8473323325157165,-0.1996783766053617,-0.3339123672671616
1743927030983163100,6.1911630859375,2.1712094818502665,-0.2224789680868387,-0.13817666387297212
1743927030993209000,6.201208984375,2.1576246086120605,-0.2317282963387668,-0.05153257773935329
1743927031003255000,6.211255126953125,1.765893820235133,-0.2623720025360584,-0.1517975034737028
1743927031013300200,6.22130029296875,1.3011819667994975,-0.3038040831208229,-0.33621282622925935
1743927031023346200,6.23134619140625,0.9021621904581785,-0.3943248965233564,-0.5511608873546123
1743927031033391400,6.241391357421875,0.7155079844683409,-0.36456440290138126,-0.5335472335243597
1743927031043437300,6.251437255859375,0.7008972753137349,-0.29098507968857884,-0.36123642752245066
1743927031053483300,6.261483154296875,0.6939572469174862,-0.33778175604641436,-0.2828819805960171
1743927031063528000,6.27152783203125,0.7835732204347848,-0.4194575842142105,-0.2324593870922923
1743927031073574100,6.28157421875,0.9633727382242679,-0.48260786787122484,-0.19338258266309274
1743927031083619000,6.291619140625,1.1012070914655923,-0.5841052717097103,-0.21153160374537108
1743927031093665000,6.3016650390625,1.174569849318266,-0.6761398506760596,-0.11832500359127297
1743927031103711200,6.311711181640625,1.061798041141033,-0.8403665362805127,-0.043638979511894285
1743927031113756200,6.321756103515625,0.7803513357788324,-1.0694172839730978,-0.1681977811925113
1743927031123802000,6.331802001953125,0.4164332679569721,-1.14424149268046,-0.3015884163653478
1743927031133847300,6.341847412109375,0.17062077055573463,-1.0254989395305514,-0.32963107321877033
1743927031143893200,6.351893310546875,-0.0027881694138050077,-0.820168090121448,-0.2681164279395714
1743927031153939200,6.361939208984375,-0.1474643513739109,-0.6818263718798756,-0.20105576590579002
1743927031163984100,6.371984130859375,-0.21923136446774005,-0.6303026670001447,-0.17522291232263668
1743927031174030000,6.382030029296875,-0.2919961564272642,-0.5960473461769521,-0.18662918114643542
1743927031184075000,6.392074951171875,-0.3450362572193146,-0.5351332971394062,-0.14211938274991698
1743927031194121200,6.402121337890625,-0.4136532818496227,-0.5217296256870031,0.026809050804702562
1743927031204167200,6.412167236328125,-0.5218307479739189,-0.43993499344512815,0.38440808080602434
1743927031214212000,6.422212158203125,-0.9115881904512644,-0.42759237535297867,0.6175608204573393
1743927031224258300,6.43225830078125,-1.5037532883673905,-0.7529283451937139,0.3201982781587168
1743927031234303200,6.44230322265625,-2.1761054371982813,-1.0813472296111286,-0.18573365707881748
1743927031244349200,6.45234912109375,-2.488419574511051,-1.0678745845757425,-0.45684214297384024
1743927031254395100,6.46239501953125,-2.433780221828818,-0.9203573339708149,-0.5984709931273013
1743927031264440000,6.472440185546875,-2.145238005247712,-0.5675866831071674,-0.5379959930941463
1743927031274486000,6.482486083984375,-1.786793400400877,0.08097367124781012,-0.06971336393307428
1743927031284531200,6.49253125,-1.7179659478902816,0.568338962779194,0.3140107851628214
1743927031294577200,6.5025771484375,-1.9962094732969997,0.6887658157542348,0.3967031334294006
1743927031304623000,6.512623046875,-2.314239650169015,0.8087482859626411,0.3759806999288499
1743927031314668300,6.522668212890625,-2.5350936474025247,0.946631300651282,0.40949360488690434
1743927031324714200,6.53271435546875,-2.58001181653738,1.0225066258467734,0.4772657761909067
1743927031334759200,6.54275927734375,-2.384085339811444,1.0795274668380617,0.5044863760717213
1743927031344805000,6.55280517578125,-1.9902777451604603,1.0868902506910263,0.4472408594790846
1743927031354851300,6.562851318359375,-1.4151754257261753,1.0837686115391552,0.3035078949195333
1743927031364896000,6.57289599609375,-0.6921984205514192,1.1217222023583948,0.2235150331363082
1743927031374942000,6.58294189453125,0.1281926646709442,1.2884180545553565,0.3748910780612379
1743927031384987100,6.592987060546875,0.865032775503397,1.417038150858134,0.5963201352363452
1743927031395033000,6.603033203125,1.4269821833759546,1.2790873316302895,0.5181360581744462
1743927031405079000,6.6130791015625,1.8396482077538967,1.074705745770037,0.3413673229156062
1743927031415124200,6.623124267578125,2.0982465369701386,1.0005134052254259,0.3582696136061102
1743927031425170200,6.633170166015625,2.0596219150215385,0.9223511381365358,0.41605142903253434
1743927031435215400,6.64321533203125,1.7606944980263708,0.6724824972122907,0.3913745953503996
1743927031445261300,6.65326123046875,1.4377467384964226,0.40952275791615245,0.3938772258210927
1743927031455307300,6.663307373046875,1.2780255476176738,0.23745222694352267,0.5804526674862951
1743927031465352000,6.67335205078125,1.2355524335473775,0.11328881778866053,0.8688750570800154
1743927031475398100,6.683398193359375,1.2481395279198884,-0.052836541043967004,1.099601994356513
1743927031485443000,6.693443115234375,1.1988865444511174,-0.22643925001993773,1.244251872831583
1743927031495489000,6.703489013671875,1.0843868895679711,-0.4042030241981148,1.2553820463940502
1743927031505535200,6.71353515625,0.9063713325858116,-0.513830543000251,1.1564180334907024
1743927031515580200,6.723580078125,0.6954214742511511,-0.5274886276051401,1.023183721390739
1743927031525626000,6.733626220703125,0.5204816714525222,-0.4626689494311809,0.8817385572411119
1743927031535671300,6.74367138671875,0.4510597601801157,-0.37826749569177626,0.6980652667582035
1743927031545717200,6.75371728515625,0.5567062465220689,-0.2675494051739573,0.5261769604846834
1743927031555763200,6.76376318359375,0.8085065861612558,-0.1557929115191102,0.3160080964598804
1743927031565808000,6.77380810546875,1.1431880381047725,-0.012216361363977192,0.1817792203646153
1743927031575854000,6.78385400390625,1.4314783257514236,0.15956614644750952,0.14211305347383021
1743927031585899000,6.79389892578125,1.6606716967850923,0.27300036405622957,0.14613776981211266
1743927031595945200,6.8039453125,1.7167390364438295,0.22766659985780716,0.08538823628704995
1743927031605991200,6.8139912109375,1.6553531321108341,0.08074380801469087,0.015316820730501784
1743927031616036000,6.8240361328125,1.5658330201834438,0.009827566531300545,0.16283292969111351
1743927031626082300,6.834082275390625,1.4718769716352222,-0.07610577295050025,0.36441129469890143
1743927031636127200,6.844127197265625,1.3910416859447956,-0.21443054005727172,0.6027353725735097
1743927031646173200,6.854173095703125,1.3856541476875543,-0.3342982978448272,0.8349746141090989
1743927031656219100,6.86421923828125,1.3237643854856491,-0.40611645660400386,0.9178862676821649
1743927031666264000,6.87426416015625,1.1930658754736185,-0.37058205575570463,0.9280902663104236
1743927031676310000,6.88431005859375,0.9561281739234924,-0.4359400785900652,0.8816207760803401
1743927031686355200,6.894355224609375,0.6870522898346185,-0.5912769169047475,0.7308481769412756
1743927031696401200,6.904401123046875,0.44129941366612907,-0.6960857833787798,0.5540560608068481
1743927031706447000,6.914447021484375,0.18580255759656428,-0.7729743772700428,0.34424974648412315
1743927031716492300,6.9244921875,-0.11857961767315864,-0.8592157597877085,0.11963267039004713
1743927031726538200,6.934538330078125,-0.3446872976511717,-0.870315245950967,0.02813526704031974
1743927031736584200,6.944584228515625,-0.5432628275811672,-0.7995642780318856,0.027616357732750473
1743927031746629000,6.954629150390625,-0.6687316202461719,-0.7877244948953389,-0.060192310634255404
1743927031756675300,6.96467529296875,-0.7235685413271188,-0.7917259856216609,-0.19410254923440515
1743927031766720000,6.974719970703125,-0.6710702923268079,-0.7433611831642687,-0.29164960801191625
1743927031776766000,6.984765869140625,-0.6655009677618742,-0.5808950774915516,-0.3804288384441286
1743927031786812200,6.994812255859375,-0.7415379132598638,-0.4845107788830995,-0.5032575283965096
1743927031796857000,7.004857177734375,-0.7764765401721,-0.36077845462188124,-0.5135102250047028
1743927031806903000,7.014903076171875,-0.9280278685986996,-0.2624111655026674,-0.5704823314834386
1743927031816948200,7.0249482421875,-1.2280495105713605,-0.14405702714845536,-0.6067562255874276
1743927031826994200,7.034994140625,-1.614505573415756,-0.1308821960158646,-0.6693948333952575
1743927031837040000,7.0450400390625,-1.9073200604885816,-0.11117314080893993,-0.5387016936780884
1743927031847085300,7.055085205078125,-2.2233324677973982,-0.12164748081117868,-0.2466315586991608
1743927031857131300,7.06513134765625,-2.606571322160959,-0.3613943945631385,-0.06804466810245066
1743927031867176000,7.075176025390625,-3.1462691507369276,-0.5665609933212399,0.03828470420343801
1743927031877222100,7.08522216796875,-3.5150171229332683,-0.5409295623280108,0.28333299403283746
1743927031887268000,7.09526806640625,-3.4802994452953335,-0.3369622563570738,0.5969155803788453
1743927031897313000,7.10531298828125,-3.2686171810328957,-0.12982815691828728,0.6559526565633714
1743927031907359200,7.115359130859375,-2.897774866905808,-0.0746783704958856,0.4192773322764784
1743927031917404200,7.125404052734375,-2.3051333836495873,-0.02651931974366307,0.1842924087619409
1743927031927449600,7.13544970703125,-1.569454717811942,0.17589213508740068,0.15841480272160843
1743927031937495800,7.145495849609375,-0.86567984123528,0.44062414475306866,0.1831760450178757
1743927031947540700,7.155540771484375,-0.26733868503272534,0.5886670266672969,0.10771991334883496
1743927031957586700,7.165586669921875,0.2753203314363956,0.7006292720273136,0.09134040442341938
1743927031967632000,7.1756318359375,0.7722726587414741,0.7666857985198497,0.03414038920663297
1743927031977677600,7.185677490234375,1.22077688921988,0.778149441820383,-0.07901031701928005
1743927031987723500,7.1957236328125,1.6124854657649994,0.8087380568295717,-0.20642385054389015
1743927031997768700,7.205768798828125,1.9798457829952238,0.9116922353476286,-0.2544588730576448
1743927032007814700,7.215814697265625,2.323900043439865,0.9842603356912731,-0.23477080583982168
1743927032017859600,7.225859619140625,2.522079267528653,1.0247373075082897,-0.21185310905100777
1743927032027905800,7.23590576171875,2.5768103901475667,1.0947077925741673,-0.23675271863834932
1743927032037951700,7.24595166015625,2.4988188034504653,1.0906634856194257,-0.3058049198155291
1743927032047996700,7.25599658203125,2.3251988510787487,1.0300246002614497,-0.3683824268195778
1743927032058043000,7.26604296875,2.123087548238039,0.9105664461880921,-0.48338484359309075
1743927032068087800,7.276087890625,1.9216765026211737,0.7407444247946142,-0.5690328633274883
1743927032078133500,7.286133544921875,1.81946232881546,0.6254810920625925,-0.5171113182365894
1743927032088179700,7.2961796875,1.8320155209183693,0.6089985976867377,-0.31694515811428425
1743927032098224600,7.306224609375,1.9175649756491182,0.6264651346638799,0.02058920817547478
1743927032108270600,7.3162705078125,1.7930109597414732,0.572344252897799,0.22665442714057862
1743927032118315800,7.326315673828125,1.455906080043316,0.4485324336595833,0.2947809283075854
1743927032128361700,7.33636181640625,1.0334463914036751,0.32828371373042464,0.31436219241637736
1743927032138407700,7.34640771484375,0.6453507446587086,0.2448378071501851,0.21744714793208986
1743927032148452900,7.356452880859375,0.5949725565522909,0.24816315218061208,0.20861633735317736
1743927032158498800,7.366498779296875,0.6480272703915834,0.23820187626704573,0.18545867606233804
1743927032168543700,7.376543701171875,0.6973989118039607,0.21822496390417218,0.08607480291225947
1743927032178589700,7.386589599609375,0.795717831736803,0.20567922445535658,-0.03063627180950716
1743927032188635600,7.3966357421875,0.8117799087435007,0.17855857781767845,-0.12198443941427393
1743927032198680600,7.4066806640625,0.7098872219771146,0.11386164924055338,-0.22822748514357952
1743927032208726500,7.4167265625,0.5705377879977226,0.01630669941753149,-0.3078118939900771
1743927032218771700,7.426771728515625,0.3937953196913004,-0.05780556162819266,-0.33803967633023857
1743927032228817700,7.436817626953125,0.23313538665771483,-0.1439418763361871,-0.41352812109999354
1743927032238863600,7.446863525390625,0.174808869895339,-0.21928455595970153,-0.4350852518590167
1743927032248908800,7.45690869140625,0.2090472395837307,-0.27750483586862684,-0.4013949079748243
1743927032258954800,7.466954833984375,0.3044131549298763,-0.34216450117528435,-0.2903400232506916
1743927032269000000,7.477,0.33891397494673725,-0.43191959090232845,-0.21768831801051272
1743927032279045600,7.487045654296875,0.3105184860676527,-0.5110068638816475,-0.17770450000530108
1743927032289091600,7.497091552734375,0.2230857018083334,-0.526277644380182,-0.11036142256725578
1743927032299136500,7.507136474609375,0.09682780459225178,-0.5147197469249367,-0.13717645558817312
1743927032309182700,7.5171826171875,-0.03982522991001606,-0.5951221941560506,-0.3246524445559829
1743927032319228700,7.527228759765625,-0.10356091223955154,-0.747288293480128,-0.5512518170410767
1743927032329273600,7.537273681640625,-0.08949906913936137,-0.8403076457001268,-0.6707548697020859
1743927032339319800,7.54731982421875,-0.033361586853861806,-0.8665617386363447,-0.6577108253423124
1743927032349364700,7.55736474609375,0.09629296706318854,-0.7861427786618471,-0.46909116449840366
1743927032359410700,7.56741064453125,0.18964637354314326,-0.7057857780076563,-0.22919991037230938
1743927032369455900,7.577455810546875,0.07984685917496681,-0.6559918195299804,0.019792751435004172
1743927032379501600,7.58750146484375,-0.22574586092829704,-0.6057061320126056,0.2501923381869681
1743927032389547500,7.597547607421875,-0.6769780550658703,-0.47244230155721306,0.4694231729317456
1743927032399592700,7.6075927734375,-1.1225012239068746,-0.3246440420538187,0.6825880769673734
1743927032409638700,7.617638671875,-1.525636618873477,-0.2728912045933306,0.6447019984263926
1743927032419684600,7.6276845703125,-1.820035160267353,-0.3031108401596546,0.4048472038531676
1743927032429729800,7.637729736328125,-1.9487977337807416,-0.41992914724871516,0.04644979914892464
1743927032439775700,7.647775634765625,-1.9769488925099372,-0.7281193364992737,-0.3844470245769247
1743927032449820700,7.657820556640625,-1.9068530274987219,-0.951525940825045,-0.6383420349404215
1743927032459867000,7.667866943359375,-1.7598697376400232,-0.8240059147186577,-0.5600794127495959
1743927032469912800,7.677912841796875,-1.6933803726881742,-0.49884939309805626,-0.27827472426258026
1743927032479957500,7.68795751953125,-1.8424398842990397,-0.4217740444630384,-0.14058902224432676
1743927032490003700,7.698003662109375,-1.9749545038223266,-0.3320890973627567,0.05008932469505816
1743927032500048600,7.708048583984375,-2.088006297984719,-0.11196122244670986,0.39063641726896164
1743927032510094600,7.718094482421875,-2.241129405772686,0.0018586334787309168,0.5571237778143957
1743927032520140500,7.728140625,-2.324425528618693,0.14502280344069005,0.6905344328619539
1743927032530185700,7.738185791015625,-2.2868711662501093,0.4465891906373203,0.841974702129513
1743927032540231700,7.748231689453125,-2.195518578198552,0.7104618069946765,0.8472518388148397
1743927032550276900,7.75827685546875,-1.9872972680449486,0.8483136958926916,0.6821732856214046
1743927032560322800,7.76832275390625,-1.5711071611940859,0.9764522922888398,0.4517513226408511
1743927032570368800,7.77836865234375,-0.9343611632734536,1.1912092878215015,0.24842039661100132
1743927032580413700,7.78841357421875,-0.31690438771247864,1.346644325813651,0.07710468432735651
1743927032590459600,7.798459716796875,0.22543197267353535,1.312617260788381,-0.1047301934809424
1743927032600504600,7.808504638671875,0.8351724747687578,1.2321657137185333,-0.1433943893881049
1743927032610550500,7.818550537109375,1.3808090457439421,1.1921478838458657,-0.008799292062642051
1743927032620596700,7.8285966796875,1.6834844170957803,0.9987889195203781,0.08097135142656042
1743927032630641700,7.8386416015625,1.8269588220506905,0.7652886450730264,0.24866788683235644
1743927032640687600,7.8486875,1.8069529758542775,0.6798891202069819,0.5260882958205416
1743927032650732800,7.85873291015625,1.6418752263784409,0.6049501990787685,0.6669200407795608
1743927032660778800,7.86877880859375,1.57011113589406,0.5317562219217419,0.6931796136084943
1743927032670824700,7.87882470703125,1.545317470899224,0.6536541703626513,0.7904476362489163
1743927032680870000,7.888869873046875,1.389121531537175,0.7554369670137763,0.6529390078306198
1743927032690915600,7.89891552734375,1.1953992868572474,0.7011762383855878,0.3553282629245892
1743927032700960500,7.90896044921875,1.1100023923397064,0.6792734725266695,0.2842582191189751
1743927032711006700,7.9190068359375,1.1257102490812538,0.5069727860599756,0.14149777111969888
1743927032721052700,7.929052734375,1.1879518934607505,0.4037957585714757,0.08118133178227581
1743927032731097600,7.93909765625,1.2918605962246656,0.2786516678161919,0.03049298631472047
1743927032741143800,7.949143798828125,1.4016390678048134,0.1951068309061229,0.0276615508646355
1743927032751188700,7.959188720703125,1.4312649752616882,0.05198562330305576,0.01216171884209034
1743927032761234700,7.969234619140625,1.4830904395669697,-0.17026640416011213,0.037070104249287396
1743927032771280600,7.97928076171875,1.5875854177862405,-0.3357417746514082,0.1677134134753607
1743927032781326800,7.989326904296875,1.7037059518694877,-0.49201121764108535,0.2985921206261962
1743927032791371500,7.99937158203125,1.8318167834758758,-0.63849883293733,0.4255363926712423
1743927032801417500,8.00941748046875,1.9047393963456152,-0.7356148068211972,0.5219799471862614
1743927032811462700,8.019462646484374,1.8431418950885534,-0.8534072196394205,0.4806052593445405
1743927032821508600,8.029508544921875,1.6300205379337072,-0.8714441038504243,0.39775925488620995
1743927032831554600,8.039554443359375,1.4366583587378263,-0.80687153230533,0.3979111575122922
1743927032841599700,8.049599853515625,1.3911930771142242,-0.7390978266313671,0.4366940387625247
1743927032851645700,8.059645751953125,1.2928840940535067,-0.656995005223155,0.4828091991296038
1743927032861691000,8.06969091796875,1.098335919943452,-0.5663853444933891,0.5414581162467599
1743927032871736800,8.07973681640625,0.9001075960159302,-0.5492091687649489,0.4683288018237799
1743927032881782800,8.08978271484375,0.8263321657091379,-0.541127861379087,0.3826871752975508
1743927032891827500,8.099827392578124,0.8361930499881506,-0.5652168852359056,0.3707515671037137
1743927032901873700,8.109873779296874,0.7747533696413039,-0.6571474193058907,0.1779076761608943
1743927032911918600,8.119918701171875,0.7765496054083109,-0.6772456199608743,-0.002790669614856597
1743927032921964500,8.129964599609375,0.7793383593440055,-0.5904958495296537,-0.04433054653920698
1743927032932011000,8.140010986328125,0.6329892757356167,-0.49974035058841104,-0.07785887282867915
1743927032942056200,8.15005615234375,0.2336415826141834,-0.5644080530710518,0.0015603994508273898
1743927032952102100,8.16010205078125,-0.1801554916203022,-0.7840174570709466,0.2253055698148906
1743927032962148000,8.170148193359376,-0.5705933175772429,-0.9743928755410015,0.48511912003979085
1743927032972193000,8.180193115234376,-0.8747750018388032,-1.0492559549540281,0.7255453212928027
1743927032982239000,8.190239013671874,-1.0260434216707943,-1.0724465686663984,0.900838832899928
1743927032992284200,8.2002841796875,-1.2401818469136952,-1.099944085792452,0.9167448425620793
1743927033002330000,8.210330078125,-1.5073825847804545,-1.0309504829347134,0.8808178621996193
1743927033012376000,8.2203759765625,-1.7168045028954744,-0.8215899396181106,0.8927151476770638
1743927033022421200,8.230421142578125,-1.8602584495842456,-0.5983243511982261,0.7973563927240669
1743927033032467200,8.24046728515625,-1.9392694424569605,-0.42497444793954486,0.4637096175905317
1743927033042512100,8.25051220703125,-2.02121941139102,-0.3084624303206801,-0.01749912407249212
1743927033052558000,8.26055810546875,-2.083891848403215,-0.27642434715554115,-0.4810742285631597
1743927033062604300,8.270604248046874,-2.2487410498201847,-0.38571459682732817,-0.7580595706023275
1743927033072649000,8.28064892578125,-2.4299469272762537,-0.5106636034019291,-0.8543777451720088
1743927033082695000,8.29069482421875,-2.3928321253687144,-0.6402050523333251,-0.6958214333541691
1743927033092740000,8.300739990234375,-2.1925188118606806,-0.5552693455867469,-0.27397914596050976
1743927033102786000,8.3107861328125,-2.0649317118674517,-0.376328344322741,0.15449804940298198
1743927033112832000,8.32083203125,-1.9236445878237485,-0.23697174995020032,0.462192089167051
1743927033122877200,8.330877197265625,-1.768512478300929,-0.09615735798478126,0.5920892196683213
1743927033132923100,8.340923095703126,-1.6455863558560608,0.1363363697685301,0.5271250915223732
1743927033142968000,8.350968017578126,-1.5803765093207358,0.33968466705828904,0.22600750753916798
1743927033153014300,8.36101416015625,-1.4559019883900879,0.45593978730663653,-0.14056922156531362
1743927033163060200,8.371060302734374,-1.153254089567065,0.7464869139693677,-0.2311517750924453
1743927033173104000,8.381104248046874,-0.13648819932937623,1.4257595097132025,-0.10859075963292271
1743927033183150000,8.391150146484375,0.30710429370999337,1.582683324958384,-0.1699746181393042
1743927033193196000,8.401196044921875,0.7581418420583009,1.6770014848172663,-0.07723320607785135
1743927033203241200,8.4112412109375,1.1241788017302752,1.6689115557335317,0.11605934194792061
1743927033213287200,8.421287109375,1.3056313474237917,1.4786436892911792,0.19416114755384623
1743927033223332000,8.43133203125,1.3814274699032305,1.1886918981730936,0.13431286458428948
1743927033233378000,8.4413779296875,1.491081438320875,0.9223457313090563,0.06599098697565496
1743927033243424300,8.45142431640625,1.6613012268602847,0.6869386003270744,-0.07725406620278955
1743927033253469000,8.461468994140626,1.8632015172988174,0.554333672171831,-0.2494589276121929
1743927033263515000,8.471514892578124,2.041340408399701,0.5102332491606474,-0.42939083960969
1743927033273560000,8.48156005859375,2.094056684064865,0.4559595149204135,-0.5922441545017063
1743927033283606000,8.49160595703125,2.038607768565416,0.4460512843683362,-0.6855692116700113
1743927033293652000,8.50165185546875,1.8194553145527839,0.45084904003888365,-0.7426298732150346
1743927033303697200,8.511697265625,1.5008078825652598,0.538080164246261,-0.7149689091555774
1743927033313743000,8.5217431640625,1.2122937230348587,0.7719622776180506,-0.5981297054089606
1743927033323789000,8.5317890625,0.8949024285882711,0.8401958558887243,-0.5141365767421201
1743927033333834200,8.541834228515626,0.4647527699679136,0.7380249367028474,-0.5871499001026154
1743927033343880200,8.551880126953124,0.1340887369722128,0.6557322918109595,-0.6368009429782628
1743927033353924900,8.5619248046875,0.03044306905865669,0.6963324516162276,-0.5938000787068158
1743927033363971000,8.57197119140625,0.1187035363137722,0.7728589341968297,-0.543383019894734
1743927033374017000,8.58201708984375,0.11273965947329997,0.7541308528512716,-0.5671221708679571
1743927033384062000,8.59206201171875,0.17158640071749687,0.5601227769672871,-0.6483163895312696
1743927033394108200,8.602108154296875,0.38417993460595606,0.42749695215448735,-0.592489763293229
1743927033404153000,8.612153076171875,0.5684837780773639,0.4127278375677764,-0.4113281633703038
1743927033414199000,8.622198974609375,0.69469608258605,0.3025364012725651,-0.22746537819728255
1743927033424245000,8.632244873046876,0.7413000128507614,0.009980857396870851,-0.13080894811656324
1743927033434290200,8.642290283203126,0.6856886002659798,-0.21362053884863852,-0.09183284584917127
1743927033444336000,8.652336181640624,0.6003975042104721,-0.31999358589947224,-0.07788889350760728
1743927033454381000,8.662381103515624,0.5642471634209155,-0.36444910595864055,-0.06243296570051461
1743927033464427000,8.672427001953125,0.5313847582608461,-0.3420212933123111,-0.056028030561655756
1743927033474473000,8.682472900390625,0.5050643220901488,-0.34408436332195996,-0.1244256768202409
1743927033484518100,8.69251806640625,0.5092851546555757,-0.3473296288534999,-0.23485150639321653
1743927033494564000,8.702564208984375,0.5250339279294014,-0.3782666189089417,-0.38314569618739186
1743927033504609000,8.712609130859375,0.5855921492666005,-0.410113855677098,-0.46436398984603583
1743927033514655200,8.7226552734375,0.6570218932300805,-0.4239052112728357,-0.39678255534116175
1743927033524701200,8.732701171875,0.6940460942447185,-0.4123866229146719,-0.19439623495135455
1743927033534746000,8.74274609375,0.6497212148278951,-0.4518595322556793,0.007193674363754689
1743927033544792000,8.7527919921875,0.5139227513283491,-0.6391710331104695,0.07692297108490019
1743927033554838300,8.76283837890625,0.2945779896140098,-0.8198791901774704,-0.01790496492702514
1743927033564883000,8.772883056640625,0.16525076795518398,-0.8353707738198339,-0.06636281596273183
1743927033574929000,8.782928955078125,0.13455927709341048,-0.755141929589957,-0.07414893979430198
1743927033584974000,8.79297412109375,0.10973054078519344,-0.669617170909047,-0.10353274559099226
1743927033595020000,8.80302001953125,0.014884849920868873,-0.5153707581795752,-0.1334766329558566
1743927033605066000,8.81306591796875,-0.20502865159213543,-0.3932609205536544,-0.20668694019317627
1743927033615111200,8.823111083984376,-0.4588374084442854,-0.3608398294202983,-0.2265295586518943
1743927033625157000,8.8331572265625,-0.7634060461968183,-0.4190209463626146,-0.20861630082055926
1743927033635202000,8.8432021484375,-1.027409449326992,-0.4951728965424001,-0.09251509249228984
1743927033645248300,8.853248291015625,-1.1507038205623625,-0.5968199379846453,0.008131795464083552
1743927033655294200,8.863294189453125,-1.1352660129338503,-0.5740830593891442,0.12075487935300916
1743927033665339000,8.8733388671875,-1.1120464653879403,-0.5718344036795199,0.18429105705507098
1743927033675385000,8.883385009765625,-1.1710738238960503,-0.6773369515061378,0.09947766151390969
1743927033685430000,8.893429931640625,-1.3385294084191321,-0.7449300399161874,0.022052841854095458
1743927033695476000,8.90347607421875,-1.53450849211514,-0.7272451840132474,-0.005163374112546444
1743927033705522200,8.913522216796874,-1.7053116335004568,-0.5786268402986228,0.1205107318662107
1743927033715567000,8.923567138671874,-1.7840660212635993,-0.21038009562268853,0.5001905055087059
1743927033725613000,8.933613037109374,-1.711139316740632,0.2040523539058864,0.9573445639759302
1743927033735658200,8.943658203125,-1.6008885514736175,0.23451091279461977,1.1367765636272729
1743927033745704200,8.9537041015625,-1.7036410699397324,-0.05269727870374918,1.0151972526814788
1743927033755750100,8.963750244140625,-1.8927356548190115,-0.2543378952927887,0.8356240179285407
1743927033765795000,8.973795166015625,-2.0249708728790283,-0.24681086078882217,0.7083700223471969
1743927033775841000,8.983841064453125,-2.0828847171872855,-0.2363115324757993,0.57820788423419
1743927033785887000,8.993886962890626,-2.0213935989141465,-0.10499065278172492,0.525947024186328
1743927033795932200,9.00393212890625,-1.8431413105666636,0.10911197049543261,0.5563962307248265
1743927033805978000,9.01397802734375,-1.6342939774692058,0.2242166055344045,0.46706265434548255
1743927033816023000,9.02402294921875,-1.2467618098258972,0.3957994991205632,0.3739676796060055
1743927033826069000,9.034069091796875,-0.7238917819321156,0.6397578930877149,0.3246894886307418
1743927033836115200,9.044115234375,-0.23432021252810953,0.7686804794684052,0.1620171563288197
1743927033846160100,9.05416015625,0.2087380275040865,0.71849372228086,-0.11471004623081535
1743927033856206000,9.0642060546875,0.5717582697033882,0.6878013546362519,-0.2969040214087814
1743927033866251000,9.0742509765625,0.862912130087614,0.7171063595756888,-0.38722576857525853
1743927033876297000,9.084296875,1.1430758099019527,0.7705150014191865,-0.46040889554470776
1743927033886343000,9.094343017578124,1.396208859449625,0.8461378131583333,-0.5450973495319485
1743927033896388000,9.10438818359375,1.5892694253504276,0.9218374895259738,-0.624674817181006
1743927033906434000,9.11443408203125,1.6431079830437898,0.9289026056066155,-0.7277090751979499
1743927033916480000,9.12447998046875,1.6431775411486624,0.9440022673219441,-0.811444904635474
1743927033926524700,9.134524658203125,1.6596283252120017,0.972067209072411,-0.8392115940917283
1743927033936570600,9.144570556640625,1.7231319523513315,0.9147764650985598,-0.7929458097402006
1743927033946615600,9.154615478515625,1.7832295704394578,0.8228831942990422,-0.7268775928098707
1743927033956661500,9.16466162109375,1.7772119175851344,0.7286939215168357,-0.6571349251504988
1743927033966707500,9.17470751953125,1.7763281204879282,0.598834784938395,-0.6105041068788617
1743927033976752600,9.184752685546876,1.8328291753888128,0.5031143570661545,-0.49800264007560907
1743927033986798600,9.194798583984374,1.7761574400961397,0.4343900726690888,-0.34256219525597986
1743927033996843500,9.204843505859374,1.6665888118743895,0.3805949157260358,-0.14437829499207436
1743927034006889500,9.214889404296875,1.50091952624619,0.4305662765972316,0.15695653020469472
1743927034016935700,9.224935791015625,1.258513622418046,0.4876239424675703,0.4278895682012662
1743927034026980600,9.234980712890625,1.0206628976762293,0.3653574529752135,0.5811919780788943
1743927034037026600,9.245026611328125,0.8098141616284846,0.15896978798955677,0.6058733783382922
1743927034047071500,9.255071533203125,0.6455296083569526,0.019717676904797553,0.5678623582433909
1743927034057117400,9.265117431640626,0.4739472992926836,-0.07074614561349153,0.47616943232156334
1743927034067163400,9.275163330078126,0.26369477557241916,-0.1386551681049168,0.3425092960249632
1743927034077208600,9.28520849609375,0.07815817543566227,-0.09487257887125014,0.26358663902282714
1743927034087254500,9.295254638671874,-0.045318566629290576,0.014946224719285963,0.2297738743353635
1743927034097299500,9.305299560546874,-0.09326105202138424,0.07190846739113331,0.16489607276599852
1743927034107345700,9.315345703125,-0.0010118073910474776,0.11091931217834353,0.1729011000452563
1743927034117391600,9.3253916015625,0.16403262433707713,0.1491710091613233,0.29627500279024244
1743927034127436500,9.3354365234375,0.3310457257896662,0.1353966047003865,0.3868281475597992
1743927034137482800,9.345482666015625,0.41093350149691105,0.054854164476692675,0.4169884176217019
1743927034147528700,9.35552880859375,0.45632454884052276,-0.031374066298454996,0.44277854630798097
1743927034157573400,9.365573486328126,0.5017804781138897,-0.11495251321718096,0.4804511647613719
1743927034167619600,9.37561962890625,0.5059902047634125,-0.16664660622775554,0.6526538342136889
1743927034177664500,9.38566455078125,0.46973815716505046,-0.2710825477361679,0.8770213194608688
1743927034187710500,9.39571044921875,0.4997217920184135,-0.44663054556101556,1.0134293662261218
1743927034197756400,9.40575634765625,0.5882967320501804,-0.5451069941431284,1.1262879028387367
1743927034207801600,9.415801513671875,0.731537328249216,-0.5950320316545665,1.111756615595892
1743927034217847600,9.42584765625,0.8547948746055364,-0.7268184830337763,0.862257100244984
1743927034227892700,9.435892822265625,0.8380991758704185,-0.9422864033147692,0.49565395805761214
1743927034237938700,9.445938720703126,0.7648088987320661,-1.0822302960559724,0.1922308370783925
1743927034247984600,9.455984619140626,0.6631079351454973,-1.0726287933655083,0.06863245966145769
1743927034258029600,9.466029541015626,0.49105040978491304,-0.9882618264175951,0.12758544689225965
1743927034268075500,9.476075439453124,0.1959182934194803,-0.9424974157169461,0.2949679022470489
1743927034278120400,9.486120361328124,-0.15410510456264018,-0.9421589775428175,0.4542551221553236
1743927034288166400,9.49616650390625,-0.5374076718121766,-0.768908443005383,0.5545529409456997
1743927034298212600,9.506212646484375,-0.9138251557230949,-0.5250589162401854,0.5374754032861441
1743927034308257500,9.516257568359375,-1.1874965509086846,-0.3527062073253095,0.3439272730641067
1743927034318303500,9.526303466796875,-1.56278181591928,-0.2711668650187552,0.1594245277534239
1743927034328349700,9.536349609375,-1.9309096103906631,-0.3179433753713965,0.07845087477192282
1743927034338394600,9.54639453125,-2.1917969273269176,-0.47155938124284147,0.07941635880321264
1743927034348440600,9.556440673828124,-2.3672306511223313,-0.6440137969665229,0.11504344290364533
1743927034358485500,9.566485595703124,-2.43166951328516,-0.8024785580433904,0.12810392694156617
1743927034368531500,9.576531494140625,-2.499657592362165,-1.015058647928387,0.036926366663351654
1743927034378577400,9.586577392578125,-2.4949013377457856,-1.2101106799073518,-0.012850914674159138
1743927034388622600,9.59662255859375,-2.3793834457308054,-1.2048936759114264,0.03976875048242509
1743927034398668500,9.60666845703125,-2.192670787551999,-0.9971792923666536,0.1920224367584102
1743927034408713500,9.61671337890625,-1.883382135540247,-0.6166434133514762,0.4155320813335478
1743927034418759700,9.626759765625,-1.5584703824609518,-0.14825579401254654,0.5050355709197
1743927034428805600,9.6368056640625,-1.3149287526011466,0.22288652597442268,0.38891353899911046
1743927034438850600,9.6468505859375,-1.1417635582596064,0.5017283095352352,0.1456124216306023
1743927034448896800,9.656896728515624,-1.0140209754437208,0.7895788905903697,-0.04732453615684062
1743927034458942500,9.6669423828125,-0.8257038046777248,1.0895214759774505,-0.18165849832808598
1743927034468987400,9.6769873046875,-0.5085574249029159,1.2738507461510598,-0.2965571807324886
1743927034479033300,9.687033447265625,-0.11405600276887416,1.3630230675540864,-0.34567740466706454
1743927034489078500,9.69707861328125,0.32580957870185373,1.3146075578227638,-0.38638997533824293
1743927034499124500,9.70712451171875,0.7780038958698511,1.195444587303698,-0.4311691743938252
1743927034509170400,9.71717041015625,1.1694412542581558,1.2297303032651543,-0.3252562556680292
1743927034519215600,9.727215576171876,1.4399644145458936,1.246107437570393,-0.18167429868541657
1743927034529261600,9.737261474609374,1.5486849015057087,1.1372256225690245,-0.12083362541133537
1743927034539306800,9.747306640625,1.5130729053765535,0.9905912922784685,-0.07771742766452953
1743927034549352700,9.757352783203125,1.3900631963014602,0.869504952481389,-0.00806062992401421
1743927034559398700,9.767398681640625,1.2858236541479826,0.787431649428606,0.055876675924845035
1743927034569443600,9.777443603515625,1.2272305954039096,0.7763827244088053,0.10131881413487717
1743927034579489500,9.787489501953125,1.2636901482731102,0.7536147200226784,0.09218107476495206
1743927034589535500,9.797535400390625,1.3350994339704512,0.6006570319294929,-0.039016927468124775
1743927034599580400,9.807580322265625,1.3575199400931597,0.3213455850303173,-0.2983076411290094
1743927034609626600,9.817626708984376,1.3340221601277589,0.21671792034208773,-0.4027376278206706
1743927034619671600,9.827671630859374,1.2396347344249485,0.3184320356711745,-0.2511819885451346
1743927034629717500,9.837717529296874,1.1434160016417503,0.3963929349690675,-0.11361014956436119
1743927034639763700,9.847763671875,0.9934797071963548,0.32959567311182614,-0.08731811750424094
1743927034649808600,9.85780859375,0.7698994998693466,0.22205869684815405,-0.07433738417164422
1743927034659854600,9.8678544921875,0.5091922156751155,0.11377996230646967,-0.13186065825973636
1743927034669899500,9.8778994140625,0.32156010456383227,-0.011515811879187822,-0.24920778412902725
1743927034679945500,9.887945556640625,0.2052782424390316,-0.06196209678575396,-0.3477159247573465
1743927034689991400,9.897991455078126,0.15317396119236945,-0.0035733284421265122,-0.3166865802433342
1743927034700036600,9.90803662109375,0.14699907194972037,-0.04435922007784247,-0.3782731947802007
1743927034710082600,9.91808251953125,0.18403437888026236,0.031246494396030902,-0.36016697166003286
1743927034720127500,9.92812744140625,0.3374228596061468,0.10672624440267682,-0.23261251356108112
1743927034730173700,9.938173583984375,0.5385638561099767,0.0679402944125235,-0.16753767331596464
1743927034740219600,9.9482197265625,0.6853343800008297,-0.06966974855363368,-0.22666071075089275
1743927034750264600,9.9582646484375,0.79846508461833,-0.19821137279272077,-0.2750711789809167
1743927034760310500,9.968310546875,0.8698235169112681,-0.3011709581382572,-0.2923270323494449
1743927034770356500,9.9783564453125,0.9236977304399013,-0.3474805816315114,-0.2733253582268953
1743927034780401400,9.9884013671875,0.9687556003063916,-0.3979595997639,-0.2517569936878048
1743927034790447400,9.998447265625,0.9937433265686034,-0.43485184496194124,-0.2567969788827002
1743927034800492500,10.008492431640626,0.9734089790701865,-0.4626363623358309,-0.2658641189681366
1743927034810538500,10.01853857421875,0.8732605056226252,-0.48188817529454825,-0.2990625876821577
1743927034820584400,10.02858447265625,0.7486129662126302,-0.45478272622600197,-0.27849271439481527
1743927034830629600,10.038629638671875,0.5815957731068134,-0.4397860864937305,-0.2830593281906098
1743927034840675600,10.048675537109375,0.4022136039465666,-0.5037947405457497,-0.3534493538428098
1743927034850720800,10.058720703125,0.27103052528798577,-0.6096671445980668,-0.4644073175311088
1743927034860766700,10.0687666015625,0.1887561467051506,-0.7398160579033195,-0.5861776940695941
1743927034870812400,10.0788125,0.11839081710278987,-0.7391838974796235,-0.4561500325238332
1743927034880857300,10.088857421875,-0.008911620730161666,-0.7586440924920141,-0.26645070495074613
1743927034890903600,10.098903564453124,-0.1952957776069641,-0.8305478837080299,-0.14523304865788667
1743927034900948500,10.108948486328124,-0.45328328144848345,-0.8052960996821522,-0.043117677317839116
1743927034910994400,10.118994384765625,-0.713459819766879,-0.7774404167681932,-0.04207903671879321
1743927034921040600,10.12904052734375,-0.929998291888833,-0.7450932676538825,-0.08345434561502188
1743927034931085300,10.139085205078125,-1.073556867995858,-0.6097394791819155,-0.05468087200270965
1743927034941131300,10.14913134765625,-1.1567425162047147,-0.48270723659247156,-0.06827555424887687
1743927034951177500,10.159177490234375,-1.1325871491134165,-0.3244558260053396,-0.11986167510664089
1743927034961222400,10.169222412109375,-1.0651450134813785,-0.13488865517824888,-0.18605516238445416
1743927034971268400,10.179268310546876,-1.0578063411563634,-0.039512510699033734,-0.3181101102404296
1743927034981313500,10.1893134765625,-1.048153546670079,-0.0814839588575065,-0.5024196893328801
1743927034991359500,10.199359375,-0.9289081585645675,-0.18680808137729762,-0.6414604592218994
1743927035001405400,10.209405517578125,-0.753994074729085,-0.4145867633074522,-0.7488968977205455
1743927035011450600,10.21945068359375,-0.43295302560329435,-0.5100578925937413,-0.4367142047677189
1743927035021496600,10.22949658203125,-0.15025485887527465,-0.47565994842946524,0.08115593247953802
1743927035031541200,10.239541259765625,-0.0907096139729023,-0.5522106886684894,0.3305517317276448
1743927035041587500,10.24958740234375,-0.28996844999194143,-0.6499795735031366,0.3273786546494812
1743927035051633400,10.25963330078125,-0.6244844822406769,-0.6193833597093821,0.27006126013072207
1743927035061678300,10.26967822265625,-1.0191010551869868,-0.4800663666948676,0.26929159093247723
1743927035071724300,10.279724365234374,-1.4707079278558493,-0.3342982978448272,0.32047238239236175
1743927035081770500,10.2897705078125,-1.8298107043504714,-0.151272511485219,0.39897443936225024
1743927035091815400,10.2998154296875,-2.0009651433914897,0.03960223480910063,0.500252209100686
1743927035101861400,10.309861328125,-2.102107888573408,0.21438699317649004,0.5964969531079753
1743927035111906600,10.319906494140625,-2.0984663172006606,0.37259105749055743,0.6226430921576916
1743927035121952500,10.329952392578125,-1.9790666153162717,0.5629778741374611,0.5716749753341078
1743927035131998500,10.33999853515625,-1.787752016299963,0.7633414565280079,0.4502209712684154
1743927035142043400,10.35004345703125,-1.4314023379057645,0.8965523877523839,0.25917517925612626
1743927035152089300,10.36008935546875,-0.9014327071398496,0.9692278939932584,0.07411637096526101
1743927035162134500,10.370134521484376,-0.3066869450807571,0.9968202497959137,-0.037060039512999354
1743927035172180500,10.380180419921874,0.3291308320790529,0.9447016477629542,-0.06000362422831822
1743927035182226400,10.390226318359375,0.9574024316430091,0.902164820806682,0.008543881113023963
1743927035192271400,10.400271240234375,1.4366706336975097,0.9768445064768194,0.16623974245991557
1743927035202317600,10.410317626953125,1.7212164741188287,1.0065683213502168,0.3117452513836324
1743927035212363500,10.420363525390625,1.9095932661175727,0.925678967384994,0.26677933411691335
1743927035222408400,10.430408447265625,1.9784856005579232,0.906808847220242,0.15197011096109636
1743927035232454700,10.44045458984375,1.888297964632511,0.8704740897744894,-0.010945839104661717
1743927035242499300,10.450499267578126,1.798971913972497,0.7664882301211356,-0.12625438095158897
1743927035252545300,10.460545166015624,1.8011527651429176,0.9043547320663928,0.13624416144043205
1743927035262591500,10.470591552734374,1.7825433417409657,0.7187523732170462,0.2234159201433882
1743927035272636400,10.480636474609375,1.6569453697383403,0.3294911898240447,0.1919777025675401
1743927035282682400,10.490682373046875,1.515129253384471,0.1255462418153882,0.2919782737107016
1743927035292727600,10.5007275390625,1.3707517621099947,0.040349838306009765,0.41907600101809944
1743927035302773500,10.5107734375,1.2331015332639217,-0.0027329320952296254,0.533374361175485
1743927035312819500,10.5208193359375,1.0442208833962678,-0.12460574609488248,0.4646453275380656
1743927035322864600,10.53086474609375,0.8432575815469026,-0.23043635683208702,0.33778712634127583
1743927035332910600,10.54091064453125,0.650549482345581,-0.17568711403459308,0.29469555157907307
1743927035342955300,10.550955322265626,0.4674029922157526,-0.18755217774286864,0.2780645703769289
1743927035353001500,10.56100146484375,0.3458966734409332,-0.2803969040483236,0.29965297305705024
1743927035363047400,10.57104736328125,0.350753465822339,-0.24156141582801938,0.38956173724215476
1743927035373092400,10.58109228515625,0.4787818798422813,-0.03444295234978199,0.5167847896959632
1743927035383138300,10.59113818359375,0.5609533825725317,0.040988574600964785,0.4971636685008183
1743927035393184500,10.6011845703125,0.5994675298839807,0.06058145608231425,0.3323725539466366
1743927035403229400,10.6112294921875,0.6979331648111343,0.1167924419954419,0.19532728699008
1743927035413275400,10.621275390625,0.888630508711934,0.16939356684833765,0.11544215989764779
1743927035423320600,10.631320556640626,1.1470499742299318,0.17284955252110956,0.07713739015371539
1743927035433366500,10.641366455078124,1.3882055857360363,0.11970453004986047,0.056463892095116895
1743927035443412500,10.65141259765625,1.5549205810248852,0.05113543621450662,0.031021238839370198
1743927035453457400,10.66145751953125,1.6234294691056013,-0.03217500741779804,0.03607162669727113
1743927035463503400,10.67150341796875,1.6357476834088562,-0.1350825703151524,0.11272953080493024
1743927035473548300,10.68154833984375,1.4972475597351789,-0.20489859547168016,0.30583900474822145
1743927035483594500,10.691594482421875,1.1927917347073553,-0.2617494867235422,0.5036612868918106
1743927035493640400,10.701640380859375,0.7099281385093927,-0.30345336998701095,0.6307460999187081
1743927035503685400,10.711685302734375,0.18284195422530172,-0.32504195533022284,0.640455593028292
1743927035513731600,10.721731689453126,-0.32385318393707274,-0.5872597902178764,0.3253279691973701
1743927035523776500,10.731776611328126,-0.624115064406395,-0.6810908972121775,0.12937700648414902
1743927035533822500,10.741822509765624,-0.6831383312612772,-0.7498072905637323,0.03399032234461047
1743927035543868400,10.751868408203125,-0.6954226432949304,-0.9670002810716628,-0.08325874997768551
1743927035553913300,10.761913330078125,-0.7062859826147556,-1.2320298123791813,-0.12945261987047268
1743927035563959300,10.771959228515625,-0.6660054101526737,-1.3281141051277519,0.07565664094351232
1743927035574005200,10.782005126953125,-0.6799497643530369,-1.2291026728861034,0.4899971013396978
1743927035584050400,10.792050537109375,-0.807838477641344,-1.1627785814985632,0.8413913492836058
1743927035594096400,10.802096435546876,-0.9023317018061876,-1.1053083893045783,0.9598113194156438
1743927035604141600,10.8121416015625,-0.9674971246778964,-0.8577861653760075,0.992804657479003
1743927035614187500,10.8221875,-1.0419166981071233,-0.6095623690493405,0.7678535271249711
1743927035624233500,10.8322333984375,-1.0653618711024522,-0.5538971804507077,0.3212960468001663
1743927035634278700,10.842278564453125,-0.974711878362298,-0.39583194008544087,-0.02061108208056539
1743927035644324600,10.85232470703125,-0.733650374880433,-0.25693054213449357,-0.2091041208701208
1743927035654369300,10.862369384765625,-0.4503752850472927,-0.15355316976830363,0.05050870088459924
1743927035664415200,10.872415283203125,-0.47486032248437404,-0.5988992284767329,-0.05322154003987088
1743927035674461400,10.88246142578125,-0.9822937117934226,-0.977783540892601,-0.18805192569224163
1743927035684506400,10.89250634765625,-1.3918535868495703,-1.0855030341163276,-0.07707447185218334
1743927035694552300,10.90255224609375,-1.5446101994127035,-0.7638932451918721,0.4154598928801715
1743927035704598500,10.9125986328125,-1.7295143468648195,-0.36453546906784173,0.9135662125259637
1743927035714643500,10.9226435546875,-2.0335925707519054,-0.2897233891896903,0.9969210067566484
1743927035724689400,10.932689453125,-2.3114964889407155,-0.3400692824617028,0.731245871021971
1743927035734734600,10.942734619140625,-2.315345565584302,-0.25890695677399633,0.400444146588631
1743927035744780500,10.952780517578125,-1.954182933950424,-0.021043080289661883,0.1948105148406699
1743927035754826500,10.962826416015625,-1.3314245448499917,0.34659663840383287,0.14921842849962413
1743927035764871400,10.972871337890625,-0.7519348041117191,0.7154445638433098,0.19416733983261508
1743927035774917400,10.98291748046875,-0.3722410750091076,0.945127179698646,0.09469488421678543
1743927035784962300,10.99296240234375,-0.1902162823855877,1.0230331339389085,-0.14332290418762714
1743927035795008500,11.003008544921874,-0.06962064871490001,1.0356243199646473,-0.31290395643208174
1743927035805054500,11.013054443359374,0.0014408464580774306,1.0572221115276217,-0.3475764066888019
1743927035815099400,11.023099365234375,0.11434767919182777,1.1297267912462352,-0.23857624427108093
1743927035825145600,11.0331455078125,0.3424649454265833,1.1623805220916867,-0.1439485618053004
1743927035835191600,11.043191650390625,0.574462852486968,1.1057578866377473,-0.17452963282885028
1743927035845236500,11.053236572265625,0.7215998716026544,0.9882774623781442,-0.2746173707988113
1743927035855282400,11.063282470703125,0.9376251335054635,0.8895420705989002,-0.3805663106860593
1743927035865327400,11.073327392578125,1.2526128739416598,0.8745943845748901,-0.37830870448499915
1743927035875373300,11.083373291015626,1.5917939753919839,1.0950020993456244,-0.08549155053105205
1743927035885419300,11.093419189453124,1.8715970052003859,1.1761220471963285,0.09597811982720159
1743927035895464400,11.10346435546875,1.9347598560780286,0.9893366160422563,-0.12939676149738952
1743927035905510400,11.113510498046875,1.865569415473938,0.9219877116516232,-0.3052582274518907
1743927035915555600,11.1235556640625,1.7237977227836847,0.9606547114372253,-0.30814079715088005
1743927035925601500,11.1336015625,1.4904559998989104,1.0871297585353255,-0.13083668550685978
1743927035935648000,11.14364794921875,1.1399620617955923,1.1360060176461935,-0.04859066536882892
1743927035945693000,11.15369287109375,0.7088619705826044,1.0636603278815746,-0.10236551017621531
1743927035955739100,11.1637392578125,0.5254764109998941,0.8872475299209356,-0.2522309861414134
1743927035965785000,11.17378515625,0.5652005186229944,0.7844678311869502,-0.36189975026939064
