time,seconds_elapsed,z,y,x
1743927024815166500,0.02316650390625,-0.23510314524173737,-0.2152954787015915,-0.2955707013607025
1743927024825212400,0.03321240234375,-0.24935761094093323,-0.33738458156585693,-0.4066777527332306
1743927024835258400,0.04325830078125,-0.24607473611831665,-0.4522823989391327,-0.46974408626556396
1743927024845303300,0.05330322265625,-0.22886599600315094,-0.4998326003551483,-0.5019959211349487
1743927024855349200,0.063349365234375,-0.20041704177856445,-0.5135346055030823,-0.5110533237457275
1743927024865394400,0.07339453125,-0.1570276916027069,-0.5493608713150024,-0.4910668134689331
1743927024875440400,0.0834404296875,-0.10579460859298706,-0.5673584938049316,-0.45709580183029175
1743927024885486300,0.093486328125,-0.06602486222982407,-0.5525873303413391,-0.41240012645721436
1743927024895531500,0.103531494140625,-0.03770214319229126,-0.5186218619346619,-0.3771430552005768
1743927024905577500,0.113577392578125,-0.012822296470403671,-0.4475119411945343,-0.33845362067222595
1743927024915621600,0.12362158203125,-0.021319378167390823,-0.33934125304222107,-0.2997794449329376
1743927024925667600,0.13366748046875,-0.03888612613081932,-0.2349380999803543,-0.2689550518989563
1743927024935713500,0.143713623046875,-0.06754627078771591,-0.15477029979228973,-0.26223990321159363
1743927024945758500,0.153758544921875,-0.10520679503679276,-0.09771234542131424,-0.27428364753723145
1743927024955804400,0.163804443359375,-0.13359901309013367,-0.09387020021677017,-0.28830572962760925
1743927024965849300,0.173849365234375,-0.14772336184978485,-0.14955070614814758,-0.2702788710594177
1743927024975895300,0.183895263671875,-0.14380799233913422,-0.2232036292552948,-0.21392585337162018
1743927024985940500,0.1939404296875,-0.14662891626358032,-0.26975440979003906,-0.13801060616970062
1743927024995986400,0.203986328125,-0.1260826289653778,-0.28894808888435364,-0.038250721991062164
1743927025006032400,0.214032470703125,-0.09320903569459915,-0.26174989342689514,0.043160632252693176
1743927025016077600,0.22407763671875,-0.05433061346411705,-0.1805812567472458,0.09953761845827103
1743927025026123500,0.23412353515625,-0.016771797090768814,-0.0773237943649292,0.13449892401695251
1743927025036168400,0.24416845703125,0.01832600124180317,-0.022852828726172447,0.14157122373580933
1743927025046214400,0.25421435546875,0.04728466644883156,-0.020563727244734764,0.12420246750116348
1743927025056260400,0.26426025390625,0.06337229162454605,-0.024895625188946724,0.0889882817864418
1743927025066305300,0.27430517578125,0.06781874597072601,0.029700491577386856,0.06158958747982979
1743927025076351500,0.2843515625,0.0904737263917923,0.0653703361749649,0.056680046021938324
1743927025086396400,0.294396484375,0.10879041254520416,0.07078161090612411,0.0750979334115982
1743927025096442400,0.3044423828125,0.13013043999671936,0.06960397213697433,0.09475800395011902
1743927025106488600,0.314488525390625,0.14354194700717926,0.09958410263061523,0.09929057955741882
1743927025116533500,0.324533447265625,0.16188473999500275,0.14169374108314514,0.0902845710515976
1743927025126579500,0.334579345703125,0.17295734584331512,0.17824232578277588,0.030878016725182533
1743927025136624400,0.344624267578125,0.14583517611026764,0.19463913142681122,-0.09337735921144485
1743927025146670300,0.35467041015625,0.07966597378253937,0.21974466741085052,-0.25053396821022034
1743927025156716300,0.36471630859375,-0.009480409324169159,0.2356828898191452,-0.3773033916950226
1743927025166761500,0.374761474609375,-0.12194366008043289,0.17998728156089783,-0.4258638620376587
1743927025176807400,0.384807373046875,-0.23850968480110168,0.06927434355020523,-0.367337703704834
1743927025186852400,0.394852294921875,-0.31618934869766235,0.008157212287187576,-0.17795222997665405
1743927025196898600,0.404898681640625,-0.3353806138038635,0.06910711526870728,0.1035657450556755
1743927025206944500,0.414944580078125,-0.30046844482421875,0.1868174523115158,0.3871413469314575
1743927025216989400,0.424989501953125,-0.23276688158512115,0.30466338992118835,0.6128615140914917
1743927025227035600,0.43503564453125,-0.1538250893354416,0.4004005789756775,0.7129773497581482
1743927025237080300,0.445080322265625,-0.08182279765605927,0.434391587972641,0.6409577131271362
1743927025247126300,0.455126220703125,-0.041349489241838455,0.3806529939174652,0.42950698733329773
1743927025257172200,0.465172119140625,0.009402640163898468,0.31399062275886536,0.204545259475708
1743927025267217400,0.475217529296875,0.05036194995045662,0.2781369388103485,0.028461826965212822
1743927025277263400,0.485263427734375,0.11005616933107376,0.22251468896865845,-0.041012320667505264
1743927025287308500,0.49530859375,0.1595187783241272,0.151210218667984,-0.051312170922756195
1743927025297354500,0.5053544921875,0.1819804161787033,0.06775420159101486,-0.04503829404711723
1743927025307400400,0.515400390625,0.19485829770565033,-0.0012761170510202646,-0.011629078537225723
1743927025317445600,0.525445556640625,0.20759567618370056,-0.037710823118686676,0.0533674992620945
1743927025327491600,0.53549169921875,0.23078879714012146,-0.047611355781555176,0.1447570025920868
1743927025337536300,0.545536376953125,0.254322350025177,-0.04884280264377594,0.2564217448234558
1743927025347582500,0.55558251953125,0.27506542205810547,-0.03585051745176315,0.3496379256248474
1743927025357628400,0.56562841796875,0.27502813935279846,-0.015623540617525578,0.39046549797058105
1743927025367673300,0.57567333984375,0.26361092925071716,0.013938973657786846,0.38108399510383606
1743927025377719300,0.58571923828125,0.25623878836631775,0.01875317096710205,0.3209266662597656
1743927025387764500,0.595764404296875,0.24855545163154602,0.037136755883693695,0.21897803246974945
1743927025397810400,0.605810546875,0.23987193405628204,0.0717887431383133,0.08553767949342728
1743927025407856400,0.6158564453125,0.22508686780929565,0.10730720311403275,-0.05800176411867142
1743927025417901600,0.625901611328125,0.2054593712091446,0.08317949622869492,-0.19769494235515594
1743927025427947500,0.635947509765625,0.18183767795562744,0.011783881112933159,-0.30672022700309753
1743927025437992400,0.645992431640625,0.14473265409469604,-0.06284188479185104,-0.3689902722835541
1743927025448038400,0.656038330078125,0.07867752760648727,-0.10704995691776276,-0.4081498682498932
1743927025458083300,0.666083251953125,0.011758680455386639,-0.11907785385847092,-0.43539348244667053
1743927025468129300,0.67612939453125,-0.057395730167627335,-0.11176595091819763,-0.4513053297996521
1743927025478175500,0.686175537109375,-0.11669740080833435,-0.08796101808547974,-0.44843366742134094
1743927025488220400,0.696220458984375,-0.1776110678911209,-0.07981052994728088,-0.4267372190952301
1743927025498266400,0.706266357421875,-0.22533944249153137,-0.06251329928636551,-0.36642831563949585
1743927025508311600,0.7163115234375,-0.24025356769561768,-0.032484281808137894,-0.2595125138759613
1743927025518357500,0.726357421875,-0.2256634384393692,0.004641517531126738,-0.13442064821720123
1743927025528403500,0.736403564453125,-0.19417200982570648,0.02058875933289528,-0.02803502231836319
1743927025538448400,0.746448486328125,-0.1672852635383606,0.003271819557994604,0.03790697455406189
1743927025548494300,0.756494384765625,-0.14517603814601898,-0.027825403958559036,0.07221149653196335
1743927025558539300,0.766539306640625,-0.11509163677692413,-0.07241258025169373,0.07203067094087601
1743927025568585500,0.77658544921875,-0.09905438125133514,-0.11896686255931854,0.05712680518627167
1743927025578631400,0.78663134765625,-0.1010778546333313,-0.1583757847547531,0.034180477261543274
1743927025588676400,0.79667626953125,-0.1007455587387085,-0.17957882583141327,-0.011718492954969406
1743927025598722600,0.80672265625,-0.09360988438129425,-0.18825460970401764,-0.08973712474107742
1743927025608767500,0.816767578125,-0.10175546258687973,-0.1829349845647812,-0.1945699006319046
1743927025618813400,0.8268134765625,-0.12682859599590302,-0.16988655924797058,-0.27627408504486084
1743927025628859400,0.836859375,-0.12827980518341064,-0.1903863251209259,-0.29539862275123596
1743927025638904300,0.846904296875,-0.1018223762512207,-0.2584063708782196,-0.2492726743221283
1743927025648950300,0.8569501953125,-0.05780787020921707,-0.32379671931266785,-0.13454222679138184
1743927025658995500,0.866995361328125,-0.023212876170873642,-0.33786991238594055,0.01947396621108055
1743927025669041400,0.87704150390625,0.0003705667331814766,-0.35110244154930115,0.18160806596279144
1743927025679087400,0.88708740234375,-0.001597509253770113,-0.36121445894241333,0.3170931935310364
1743927025689132500,0.897132568359375,-0.020445693284273148,-0.3464517593383789,0.43020451068878174
1743927025699178500,0.907178466796875,-0.05428754538297653,-0.34798040986061096,0.49423062801361084
1743927025709223400,0.917223388671875,-0.10146122425794601,-0.3546691834926605,0.48656970262527466
1743927025719269600,0.92726953125,-0.15116165578365326,-0.32168617844581604,0.4160659611225128
1743927025729315600,0.937315673828125,-0.19844666123390198,-0.25375980138778687,0.2968636751174927
1743927025739360300,0.9473603515625,-0.2404060959815979,-0.1425483226776123,0.16701912879943848
1743927025749406500,0.957406494140625,-0.2506253719329834,-0.014472095295786858,0.0622180737555027
1743927025759451400,0.967451416015625,-0.23730584979057312,0.059925708919763565,0.002187497215345502
1743927025769497300,0.977497314453125,-0.23063886165618896,0.09466114640235901,0.006238379515707493
1743927025779543300,0.987543212890625,-0.22950728237628937,0.11973241716623306,0.05482375994324684
1743927025789588500,0.99758837890625,-0.24617643654346466,0.132223978638649,0.13802552223205566
1743927025799634400,1.007634521484375,-0.27336546778678894,0.12547233700752258,0.20752550661563873
1743927025809679600,1.0176796875,-0.2996797263622284,0.058469757437705994,0.24433594942092896
1743927025819725600,1.0277255859375,-0.34422963857650757,-0.006546261720359325,0.24461159110069275
1743927025829771500,1.037771484375,-0.39070945978164673,-0.0203072652220726,0.21776863932609558
1743927025839816400,1.04781640625,-0.4294499158859253,0.03597864508628845,0.13397841155529022
1743927025849862400,1.0578623046875,-0.44954338669776917,0.08285646885633469,0.01250950526446104
1743927025859907300,1.0679072265625,-0.43879833817481995,0.1124069020152092,-0.11703970283269882
1743927025869953300,1.077953369140625,-0.40741440653800964,0.15001259744167328,-0.18706947565078735
1743927025879999500,1.08799951171875,-0.3817497789859772,0.204186350107193,-0.17970210313796997
1743927025890044400,1.09804443359375,-0.3616219162940979,0.21078801155090332,-0.11595989763736725
1743927025900090400,1.10809033203125,-0.34700462222099304,0.17149440944194794,-0.007824105210602283
1743927025910135600,1.118135498046875,-0.3244917094707489,0.132120743393898,0.12276723235845566
1743927025920182300,1.128182373046875,-0.30715107917785645,0.10473784804344177,0.2511481046676636
1743927025930228200,1.138228271484375,-0.283758282661438,0.09026390314102173,0.34462153911590576
1743927025940273400,1.1482734375,-0.25138625502586365,0.09388767182826996,0.3677891790866852
1743927025950319400,1.1583193359375,-0.22282527387142181,0.1237119659781456,0.3257572650909424
1743927025960364300,1.1683642578125,-0.22033840417861938,0.1502692699432373,0.2262817770242691
1743927025970410200,1.17841015625,-0.23597781360149384,0.15222717821598053,0.10526861995458603
1743927025980456400,1.18845654296875,-0.2599766254425049,0.11272796243429184,0.005695153959095478
1743927025990501400,1.19850146484375,-0.26701200008392334,0.04151284694671631,-0.0527212992310524
1743927026000547300,1.20854736328125,-0.24521003663539886,-0.05421687290072441,-0.06090066581964493
1743927026010592300,1.21859228515625,-0.20995406806468964,-0.15305912494659424,-0.049568332731723785
1743927026020638200,1.22863818359375,-0.1890716850757599,-0.2382267564535141,-0.036096733063459396
1743927026030684200,1.23868408203125,-0.1719283163547516,-0.29844239354133606,-0.051025159657001495
1743927026040729300,1.248729248046875,-0.1595001369714737,-0.31021755933761597,-0.10097967088222504
1743927026050775300,1.258775390625,-0.15228389203548431,-0.27235910296440125,-0.2019759565591812
1743927026060820200,1.2688203125,-0.13416294753551483,-0.22937220335006714,-0.32018062472343445
1743927026070866400,1.278866455078125,-0.09882216155529022,-0.18028582632541656,-0.4263075590133667
1743927026080912400,1.288912353515625,-0.05763637274503708,-0.11826851963996887,-0.5032630562782288
1743927026090957300,1.298957275390625,-0.03194859251379967,-0.053180545568466187,-0.5325515270233154
1743927026101003500,1.30900341796875,-0.014319267123937607,-0.0017897917423397303,-0.4979317784309387
1743927026111048200,1.319048095703125,-0.007187206298112869,0.006674806587398052,-0.41383278369903564
1743927026121094100,1.32909423828125,0.001809484325349331,0.0035104388371109962,-0.29197371006011963
1743927026131139300,1.339139404296875,0.023152798414230347,-0.0221742894500494,-0.17873376607894897
1743927026141185300,1.349185302734375,0.045640796422958374,-0.0527268685400486,-0.11077442020177841
1743927026151231200,1.359231201171875,0.06825292110443115,-0.06896726787090302,-0.08773040026426315
1743927026161276400,1.3692763671875,0.08092503994703293,-0.049765072762966156,-0.08873201161623001
1743927026171322400,1.379322265625,0.09133671969175339,-0.005636566784232855,-0.09662085771560669
1743927026181367300,1.3893671875,0.11099963635206223,0.029299313202500343,-0.0777297243475914
1743927026191413500,1.39941357421875,0.12027397006750107,0.05220995098352432,-0.04159630835056305
1743927026201459500,1.40945947265625,0.10532458871603012,0.047049541026353836,0.002821221947669983
1743927026211504000,1.419504150390625,0.06615868210792542,0.03901408985257149,0.0398317389190197
1743927026221550300,1.42955029296875,0.042928460985422134,0.023093178868293762,0.052994415163993835
1743927026231595300,1.43959521484375,0.0364430695772171,0.012501973658800125,0.0676315650343895
1743927026241641200,1.44964111328125,0.04781876131892204,-0.00014591030776500702,0.08730273693799973
1743927026251687200,1.459687255859375,0.0670083537697792,0.020206529647111893,0.1079249307513237
1743927026261732400,1.469732421875,0.09856095165014267,0.05926711484789848,0.10952123254537582
1743927026271778300,1.4797783203125,0.11210013180971146,0.09636406600475311,0.09573366492986679
1743927026281823500,1.489823486328125,0.12357275933027267,0.11279310286045074,0.06908474117517471
1743927026291869400,1.499869384765625,0.14043058454990387,0.10204900056123734,0.019809015095233917
1743927026301915400,1.509915283203125,0.16186024248600006,0.06476607918739319,-0.039174679666757584
1743927026311960300,1.519960205078125,0.16284987330436707,0.03856835514307022,-0.10353516042232513
1743927026322006300,1.53000634765625,0.15044540166854858,0.007976625114679337,-0.1697743684053421
1743927026332051200,1.54005126953125,0.12648433446884155,-0.03474310785531998,-0.2206639051437378
1743927026342097400,1.550097412109375,0.10831091552972794,-0.06408421695232391,-0.24565793573856354
1743927026352143400,1.560143310546875,0.10320006310939789,-0.05046951025724411,-0.2619093954563141
1743927026362188300,1.570188232421875,0.09506117552518845,0.011366692371666431,-0.23659098148345947
1743927026372234200,1.580234130859375,0.0679195448756218,0.09675420075654984,-0.1670028120279312
1743927026382279400,1.590279541015625,0.06691420078277588,0.1419253945350647,-0.06227373331785202
1743927026392325400,1.600325439453125,0.10871288180351257,0.14669950306415558,0.04333085939288139
1743927026402371300,1.610371337890625,0.1472666710615158,0.15290068089962006,0.14943625032901764
1743927026412416300,1.620416259765625,0.15954528748989105,0.14748941361904144,0.2560322880744934
1743927026422462200,1.630462158203125,0.1549992710351944,0.1474931389093399,0.36226925253868103
1743927026432507400,1.64050732421875,0.15878508985042572,0.15224160254001617,0.4366927146911621
1743927026442553300,1.65055322265625,0.1720668077468872,0.14637678861618042,0.47531548142433167
1743927026452599300,1.660599365234375,0.198288694024086,0.16475623846054077,0.4714413583278656
1743927026462644200,1.670644287109375,0.211008220911026,0.1738344132900238,0.41585424542427063
1743927026472690400,1.6806904296875,0.20851854979991913,0.1761249452829361,0.31104812026023865
1743927026482735400,1.6907353515625,0.19441844522953033,0.19699160754680634,0.201716810464859
1743927026492781300,1.70078125,0.1841960847377777,0.17659343779087067,0.11892075091600418
1743927026502827500,1.71082763671875,0.18432071805000305,0.13886310160160065,0.09827672690153122
1743927026512872200,1.7208720703125,0.18747442960739136,0.07500140368938446,0.11821719259023666
1743927026522918100,1.730918212890625,0.2086244523525238,0.01872880756855011,0.15391846001148224
1743927026532963300,1.74096337890625,0.2578721046447754,-0.003087469609454274,0.19417305290699005
1743927026543009300,1.75100927734375,0.32273098826408386,0.003253783332183957,0.2288665771484375
1743927026553054200,1.76105419921875,0.38723212480545044,0.02400033362209797,0.27033722400665283
1743927026563100400,1.771100341796875,0.43340733647346497,0.05258297547698021,0.3212614059448242
1743927026573146400,1.781146484375,0.47197866439819336,0.08976113796234131,0.39063307642936707
1743927026583191300,1.79119140625,0.4899851083755493,0.09155344218015671,0.4567162096500397
1743927026593237500,1.801237548828125,0.49697762727737427,0.08187077939510345,0.4812674820423126
1743927026603282200,1.8112822265625,0.4756244122982025,0.06428885459899902,0.4520573914051056
1743927026613328100,1.821328125,0.4214390814304352,0.04521075636148453,0.3590700924396515
1743927026623374300,1.831374267578125,0.3557303845882416,0.017530661076307297,0.2141597867012024
1743927026633419300,1.841419189453125,0.2924594581127167,-0.006284303963184357,0.048718828707933426
1743927026643465200,1.85146533203125,0.2443007081747055,-0.030158476904034615,-0.10348375141620636
1743927026653510400,1.861510498046875,0.21291190385818481,-0.04464767128229141,-0.21257135272026062
1743927026663556400,1.871556396484375,0.19026118516921997,-0.027740592136979103,-0.2933383584022522
1743927026673602300,1.881602294921875,0.14976389706134796,-0.0022168895229697227,-0.3412744700908661
1743927026683647500,1.8916474609375,0.0997966080904007,0.023419497534632683,-0.3661731779575348
1743927026693693400,1.901693359375,0.04635895416140556,0.04346185922622681,-0.37000593543052673
1743927026703738000,1.911738037109375,-0.014270838350057602,0.024311602115631104,-0.38185539841651917
1743927026713784300,1.921784423828125,-0.07398055493831635,0.005662621930241585,-0.4029145836830139
1743927026723830300,1.931830322265625,-0.10615313798189163,0.00109103973954916,-0.42991212010383606
1743927026733875200,1.941875244140625,-0.11959300190210342,-0.00763541366904974,-0.4459148049354553
1743927026743921200,1.951921142578125,-0.1146877259016037,-0.04002105072140694,-0.4408012926578522
1743927026753966300,1.96196630859375,-0.09544610232114792,-0.0756867527961731,-0.4219006597995758
1743927026764012300,1.97201220703125,-0.08670027554035187,-0.053214725106954575,-0.36091533303260803
1743927026774058200,1.982058349609375,-0.08746987581253052,-0.011202748864889145,-0.26803722977638245
1743927026784103400,1.992103515625,-0.08271266520023346,0.0114780617877841,-0.14821282029151917
1743927026794149400,2.0021494140625,-0.07906193286180496,0.008272971957921982,-0.05265708267688751
1743927026804194300,2.0121943359375,-0.07073768973350525,-0.034797001630067825,-0.022596385329961777
1743927026814240300,2.022240234375,-0.0690939724445343,-0.08861187845468521,-0.052322179079055786
1743927026824286200,2.0322861328125,-0.09624996036291122,-0.12119858711957932,-0.1370895355939865
1743927026834331400,2.042331298828125,-0.16232401132583618,-0.12255573272705078,-0.24290235340595245
1743927026844377300,2.05237744140625,-0.22398072481155396,-0.10284063220024109,-0.3343590199947357
1743927026854422300,2.06242236328125,-0.22892124950885773,-0.037345364689826965,-0.3956510126590729
1743927026864468200,2.07246826171875,-0.17860294878482819,0.05673399567604065,-0.42924970388412476
1743927026874513400,2.082513427734375,-0.09988635778427124,0.12221066653728485,-0.4183306097984314
1743927026884559400,2.092559326171875,-0.0484846867620945,0.15269425511360168,-0.3725588619709015
1743927026894605300,2.102605224609375,-0.03377678245306015,0.17683111131191254,-0.3039892613887787
1743927026904650200,2.112650146484375,-0.04501185566186905,0.1838589310646057,-0.19459247589111328
1743927026914696200,2.1226962890625,-0.09060267359018326,0.13602116703987122,-0.053584277629852295
1743927026924740600,2.13274072265625,-0.17881536483764648,0.03595634549856186,0.08174212276935577
1743927026934786600,2.14278662109375,-0.28554901480674744,-0.12226486951112747,0.14904412627220154
1743927026944832500,2.15283251953125,-0.3726801872253418,-0.25331664085388184,0.14707738161087036
1743927026954877700,2.162877685546875,-0.4450153708457947,-0.27298852801322937,0.08073416352272034
1743927026964923600,2.172923583984375,-0.4917903542518616,-0.2363343983888626,-0.008275069296360016
1743927026974968300,2.18296826171875,-0.5178462266921997,-0.16618852317333221,-0.06667123734951019
1743927026985014500,2.1930146484375,-0.5053703784942627,-0.08309763669967651,-0.05950573831796646
1743927026995060500,2.203060546875,-0.45355355739593506,-0.014219384640455246,0.008199396543204784
1743927027005105400,2.21310546875,-0.3799208700656891,0.014118779450654984,0.12750394642353058
1743927027015151600,2.223151611328125,-0.3105679452419281,0.02626728266477585,0.2879329323768616
1743927027025196500,2.233196533203125,-0.2693997323513031,0.007316760718822479,0.46335989236831665
1743927027035242500,2.243242431640625,-0.28245648741722107,-0.07498856633901596,0.594361424446106
1743927027045288400,2.253288330078125,-0.32713767886161804,-0.18653851747512817,0.6570063829421997
1743927027055333600,2.263333740234375,-0.3829405903816223,-0.2863715887069702,0.6370551586151123
1743927027065379600,2.273379638671875,-0.4482460916042328,-0.33606672286987305,0.5059773325920105
1743927027075424500,2.283424560546875,-0.5159947276115417,-0.28716981410980225,0.3249887526035309
1743927027085470500,2.293470458984375,-0.5506224632263184,-0.15972235798835754,0.1767481565475464
1743927027095516400,2.303516357421875,-0.5297347903251648,-0.06550316512584686,0.09430984407663345
1743927027105561600,2.3135615234375,-0.47268587350845337,-0.008128025569021702,0.07929867506027222
1743927027115607600,2.323607666015625,-0.3985013961791992,0.06071276590228081,0.11164796352386475
1743927027125652500,2.333652587890625,-0.3332296907901764,0.11732064932584763,0.17150038480758667
1743927027135698400,2.343698486328125,-0.2845858931541443,0.13854116201400757,0.25053614377975464
1743927027145744600,2.35374462890625,-0.2699083983898163,0.1404477208852768,0.3438035249710083
1743927027155789600,2.36378955078125,-0.25931021571159363,0.09455212950706482,0.40908095240592957
1743927027165835500,2.37383544921875,-0.26373159885406494,0.027539003640413284,0.40671685338020325
1743927027175880400,2.38388037109375,-0.27185580134391785,-0.01740851439535618,0.34890326857566833
1743927027185926400,2.393926513671875,-0.27819839119911194,-0.009825428947806358,0.2649380564689636
1743927027195972400,2.403972412109375,-0.2829476296901703,0.04639918729662895,0.18323777616024017
1743927027206017500,2.414017578125,-0.26901715993881226,0.114206463098526,0.12230385839939117
1743927027216063500,2.4240634765625,-0.22676639258861542,0.15086445212364197,0.07963453978300095
1743927027226108700,2.434108642578125,-0.16834649443626404,0.12888433039188385,0.04616846516728401
1743927027236154600,2.444154541015625,-0.1087014302611351,0.0760304406285286,0.02609444223344326
1743927027246199600,2.454199462890625,-0.06703867018222809,0.04228818789124489,-0.004863208159804344
1743927027256245500,2.46424560546875,-0.048413317650556564,-0.0077837686985731125,-0.05310477316379547
1743927027266291700,2.474291748046875,-0.03764323145151138,-0.1039276123046875,-0.12283938378095627
1743927027276336400,2.48433642578125,-0.012935170903801918,-0.2993967831134796,-0.21363510191440582
1743927027286382300,2.49438232421875,0.03289463371038437,-0.38359740376472473,-0.3071274757385254
1743927027296427500,2.504427490234375,0.10216035693883896,-0.37274521589279175,-0.3739134967327118
1743927027306473500,2.514473388671875,0.17656934261322021,-0.37393805384635925,-0.4032149314880371
1743927027316519400,2.52451953125,0.24447806179523468,-0.42305535078048706,-0.40402716398239136
1743927027326564600,2.534564697265625,0.30730417370796204,-0.5054064393043518,-0.3686923384666443
1743927027336610600,2.544610595703125,0.3396361768245697,-0.5752830505371094,-0.3186914920806885
1743927027346655500,2.554655517578125,0.34335365891456604,-0.6048361659049988,-0.2876281142234802
1743927027356701700,2.56470166015625,0.3349364697933197,-0.5309539437294006,-0.2578185498714447
1743927027366747600,2.57474755859375,0.3106987774372101,-0.36324670910835266,-0.2401396930217743
1743927027376792300,2.584792236328125,0.28118038177490234,-0.19452358782291412,-0.2284691333770752
1743927027386838500,2.594838623046875,0.24242179095745087,-0.054076194763183594,-0.21556878089904785
1743927027396883500,2.604883544921875,0.19319798052310944,0.053796716034412384,-0.20064862072467804
1743927027406929400,2.614929443359375,0.15160180628299713,0.14868487417697906,-0.17803572118282318
1743927027416975600,2.6249755859375,0.13095112144947052,0.22579483687877655,-0.170371413230896
1743927027427020500,2.6350205078125,0.12504076957702637,0.2822043299674988,-0.18979118764400482
1743927027437066500,2.64506640625,0.11421261727809906,0.33639830350875854,-0.19397208094596863
1743927027447111700,2.655111572265625,0.10308566689491272,0.3536774218082428,-0.16484348475933075
1743927027457157600,2.66515771484375,0.09840735793113708,0.3431989848613739,-0.10913555324077606
1743927027467203600,2.67520361328125,0.1009642630815506,0.3137814402580261,-0.039912544190883636
1743927027477248500,2.68524853515625,0.11909052729606628,0.2903721034526825,0.03822978213429451
1743927027487294500,2.69529443359375,0.15054592490196228,0.2769455015659332,0.12663687765598297
1743927027497339400,2.70533935546875,0.18104444444179535,0.25224196910858154,0.20141823589801788
1743927027507385600,2.715385498046875,0.20531143248081207,0.22925756871700287,0.23130716383457184
1743927027517431600,2.725431640625,0.2097184956073761,0.20669688284397125,0.20516949892044067
1743927027527476500,2.7354765625,0.19608017802238464,0.15130206942558289,0.14344248175621033
1743927027537522400,2.7455224609375,0.16465061902999878,0.009089116007089615,0.04852727800607681
1743927027547567600,2.755567626953125,0.12615568935871124,-0.20785410702228546,-0.044665250927209854
1743927027557613600,2.765613525390625,0.09953573346138,-0.37473025918006897,-0.0461554080247879
1743927027567658500,2.775658447265625,0.09042585641145706,-0.44587501883506775,0.005898741073906422
1743927027577704400,2.785704345703125,0.09762409329414368,-0.45060333609580994,0.02980579063296318
1743927027587750400,2.79575048828125,0.11291570216417313,-0.3686927855014801,0.014361321926116943
1743927027597795600,2.805795654296875,0.13008160889148712,-0.22271376848220825,-0.0388183668255806
1743927027607841500,2.815841552734375,0.12776651978492737,-0.06489004194736481,-0.09798900783061981
1743927027617886500,2.825886474609375,0.10793246328830719,0.0068169631995260715,-0.15653805434703827
1743927027627932700,2.8359326171875,0.09342356771230698,-0.017711549997329712,-0.19059322774410248
1743927027637978600,2.845978515625,0.10658219456672668,-0.04200137034058571,-0.1901410073041916
1743927027648023600,2.8560234375,0.1584877222776413,-0.01865796186029911,-0.14190955460071564
1743927027658069500,2.866069580078125,0.20573113858699799,0.024861285462975502,-0.06566458940505981
1743927027668114400,2.876114501953125,0.24634619057178497,0.06250748038291931,0.04180232062935829
1743927027678160400,2.886160400390625,0.2720549702644348,0.13511858880519867,0.15551094710826874
1743927027688206300,2.896206298828125,0.2673896551132202,0.23874777555465698,0.18659083545207977
1743927027698251500,2.90625146484375,0.26478877663612366,0.4152778089046478,0.18356505036354065
1743927027708297500,2.91629736328125,0.2849227786064148,0.5231795310974121,0.1210007444024086
1743927027718342700,2.9263427734375,0.2708493769168854,0.4904578626155853,0.03184967860579491
1743927027728388600,2.936388671875,0.23693720996379852,0.3588537573814392,-0.06123153120279312
1743927027738434600,2.9464345703125,0.21389999985694885,0.24940741062164307,-0.12661631405353546
1743927027748479500,2.9564794921875,0.226963073015213,0.2280837595462799,-0.12691006064414978
1743927027758525700,2.966525634765625,0.2873571515083313,0.279668927192688,-0.039938777685165405
1743927027768570400,2.9765703125,0.37699276208877563,0.2960337996482849,0.10271131247282028
1743927027778616300,2.9866162109375,0.4355592429637909,0.24444112181663513,0.2745486795902252
1743927027788662500,2.99666259765625,0.431704580783844,0.14924855530261993,0.41431161761283875
1743927027798707500,3.00670751953125,0.40897953510284424,0.0021753888577222824,0.4938690960407257
1743927027808753400,3.01675341796875,0.40196794271469116,-0.13637930154800415,0.5481792092323303
1743927027818798600,3.026798583984375,0.4096680283546448,-0.23565563559532166,0.5478724837303162
1743927027828844500,3.036844482421875,0.4050716757774353,-0.274409681558609,0.4906299412250519
1743927027838890500,3.046890380859375,0.3665451407432556,-0.23273688554763794,0.3704013526439667
1743927027848935700,3.056935791015625,0.3243074119091034,-0.1249539777636528,0.2243858277797699
1743927027858981600,3.066981689453125,0.29519879817962646,0.042928822338581085,0.07521864026784897
1743927027869026300,3.0770263671875,0.27152010798454285,0.20514675974845886,-0.10881884396076202
1743927027879072500,3.087072509765625,0.228979229927063,0.28052836656570435,-0.33075496554374695
1743927027889118500,3.097118408203125,0.16376987099647522,0.2750169634819031,-0.5359863638877869
1743927027899163400,3.107163330078125,0.09534578770399094,0.24401861429214478,-0.6553704142570496
1743927027909209600,3.117209716796875,0.028088457882404327,0.18110063672065735,-0.716298520565033
1743927027919255000,3.127255126953125,-0.0222329068928957,0.09712466597557068,-0.7384195327758789
1743927027929301000,3.137301025390625,-0.06582219898700714,0.01488066092133522,-0.7484285235404968
1743927027939347000,3.147346923828125,-0.09912800788879395,-0.03108595870435238,-0.7410554885864258
1743927027949392100,3.15739208984375,-0.10987306386232376,-0.023893026635050774,-0.7184585928916931
1743927027959438000,3.16743798828125,-0.0867292508482933,0.03414768725633621,-0.6663670539855957
1743927027969483300,3.177483154296875,-0.03950048238039017,0.10140528529882431,-0.5846476554870605
1743927027979529200,3.187529296875,0.02336101606488228,0.1290605217218399,-0.4735754132270813
1743927027989575200,3.1975751953125,0.08570614457130432,0.10887136310338974,-0.3325943350791931
1743927027999619800,3.207619873046875,0.1301822066307068,-0.0003345673903822899,-0.19949737191200256
1743927028009666000,3.217666015625,0.17793534696102142,-0.1754768192768097,-0.10029063373804092
1743927028019711000,3.2277109375,0.22818712890148163,-0.3065005838871002,-0.017557214945554733
1743927028029757000,3.2377568359375,0.2718872129917145,-0.3888615071773529,0.02620251663029194
1743927028039803100,3.24780322265625,0.27843230962753296,-0.36257222294807434,0.05957907810807228
1743927028049848000,3.25784814453125,0.2330254316329956,-0.26127195358276367,0.05757744610309601
1743927028059894000,3.26789404296875,0.15031230449676514,-0.10128660500049591,0.04977640509605408
1743927028069939200,3.277939208984375,0.053230490535497665,0.07326309382915497,0.04466420039534569
1743927028079985200,3.287985107421875,-0.03415192663669586,0.16149888932704926,0.03680892661213875
1743927028090031000,3.298031005859375,-0.09107166528701782,0.11605256795883179,0.0490831695497036
1743927028100076000,3.308075927734375,-0.10897671431303024,-0.013774370774626732,0.1013604998588562
1743927028110122000,3.3181220703125,-0.09740261733531952,-0.12065155059099197,0.17679612338542938
1743927028120167000,3.3281669921875,-0.08815344423055649,-0.15130086243152618,0.23521371185779572
1743927028130213000,3.338213134765625,-0.09636130928993225,-0.14097552001476288,0.2740958333015442
1743927028140259000,3.348259033203125,-0.11825072020292282,-0.1554936021566391,0.2789573073387146
1743927028150304000,3.358303955078125,-0.15532885491847992,-0.17318151891231537,0.25996366143226624
1743927028160350200,3.36835009765625,-0.213466078042984,-0.1319478452205658,0.2184368073940277
1743927028170395100,3.37839501953125,-0.28411865234375,-0.050212230533361435,0.178793802857399
1743927028180441000,3.388441162109375,-0.34992876648902893,-0.011960429139435291,0.16800664365291595
1743927028190487000,3.398487060546875,-0.38044804334640503,-0.02630874142050743,0.16405025124549866
1743927028200532000,3.408531982421875,-0.38508880138397217,-0.05914837121963501,0.17190243303775787
1743927028210578000,3.418577880859375,-0.35282808542251587,-0.06776688992977142,0.2174968123435974
1743927028220623000,3.428623046875,-0.2798703610897064,-0.060099080204963684,0.287665992975235
1743927028230669000,3.4386689453125,-0.18400053679943085,-0.11005066335201263,0.315089613199234
1743927028240715000,3.448715087890625,-0.10107187926769257,-0.189826101064682,0.2782752513885498
1743927028250760200,3.45876025390625,-0.1023712307214737,-0.16950219869613647,0.1921723186969757
1743927028260806100,3.46880615234375,-0.18179798126220703,-0.016285868361592293,0.10201239585876465
1743927028270851000,3.47885107421875,-0.3355950117111206,0.1386115700006485,-0.01886395737528801
1743927028280897000,3.48889697265625,-0.5408579111099243,0.2651197612285614,-0.11767129600048065
1743927028290942000,3.49894189453125,-0.6641502380371094,0.2875925898551941,-0.164849191904068
1743927028300988000,3.50898779296875,-0.6525748372077942,0.22742927074432373,-0.16084560751914978
1743927028311033900,3.519033935546875,-0.557175874710083,0.1624918133020401,-0.10233890265226364
1743927028321079000,3.5290791015625,-0.4331827461719513,0.14557193219661713,0.03281811624765396
1743927028331125000,3.539125,-0.29464513063430786,0.08441909402608871,0.18506598472595215
1743927028341171000,3.5491708984375,-0.19352266192436218,-0.018584508448839188,0.32219383120536804
1743927028351216000,3.559216064453125,-0.14622651040554047,-0.11814279109239578,0.41035643219947815
1743927028361262000,3.569261962890625,-0.1826884001493454,-0.12654297053813934,0.45721572637557983
1743927028371307000,3.57930712890625,-0.28866198658943176,-0.05732635036110878,0.42743945121765137
1743927028381353200,3.589353271484375,-0.40177035331726074,0.09219563007354736,0.3955598771572113
1743927028391398000,3.59939794921875,-0.4654446840286255,0.17489157617092133,0.31955111026763916
1743927028401443800,3.60944384765625,-0.46957871317863464,0.14936810731887817,0.23028142750263214
1743927028411490000,3.619489990234375,-0.42756760120391846,0.06911614537239075,0.144610196352005
1743927028421535000,3.629534912109375,-0.3512232303619385,-0.05081961303949356,0.05525927245616913
1743927028431581000,3.639580810546875,-0.26901572942733765,-0.17819993197917938,-0.07430724054574966
1743927028441626000,3.649626220703125,-0.1906743198633194,-0.20655125379562378,-0.23381775617599487
1743927028451672000,3.659672119140625,-0.1463097780942917,-0.18931473791599274,-0.35554152727127075
1743927028461718000,3.669718017578125,-0.16036543250083923,-0.17184534668922424,-0.4919799566268921
1743927028471763200,3.67976318359375,-0.23675952851772308,-0.1668178290128708,-0.6554647088050842
1743927028481809200,3.68980908203125,-0.34219059348106384,-0.09981947392225266,-0.7612573504447937
1743927028491854000,3.69985400390625,-0.40654054284095764,-0.018413299694657326,-0.822960615158081
1743927028501900000,3.709900146484375,-0.3936099708080292,-0.041014812886714935,-0.8427703380584717
1743927028511946000,3.719946044921875,-0.3427118957042694,-0.08667337894439697,-0.8029465079307556
1743927028521991000,3.729990966796875,-0.30060717463493347,0.011574885807931423,-0.6567597389221191
1743927028532037000,3.740037109375,-0.24032384157180786,0.13961566984653473,-0.435161292552948
1743927028542082000,3.75008203125,-0.14101921021938324,0.1472221314907074,-0.19614791870117188
1743927028552128000,3.7601279296875,0.0292366836220026,0.000611121067777276,0.042556267231702805
1743927028562174200,3.77017431640625,0.25913771986961365,-0.16986125707626343,0.2538778483867645
1743927028572219100,3.78021923828125,0.5044012665748596,-0.19030927121639252,0.4170028567314148
1743927028582265000,3.79026513671875,0.6448443531990051,-0.12507005035877228,0.37595367431640625
1743927028592310000,3.80031005859375,0.6569739580154419,-0.14503788948059082,0.26936784386634827
1743927028602356000,3.81035595703125,0.5617051124572754,-0.25152888894081116,0.21899516880512238
1743927028612402000,3.82040185546875,0.3937406539916992,-0.2806715965270996,0.1631028801202774
1743927028622447000,3.830447021484375,0.20735755562782288,-0.17689597606658936,0.07659157365560532
1743927028632493000,3.8404931640625,0.035090986639261246,-0.03677215799689293,-0.050633754581213
1743927028642538000,3.8505380859375,-0.06474120914936066,0.11060206592082977,-0.12314135581254959
1743927028652584200,3.860584228515625,-0.10437916219234467,0.16204530000686646,-0.12458771467208862
1743927028662630100,3.870630126953125,-0.12712936103343964,0.08770682662725449,-0.058965135365724564
1743927028672675000,3.880675048828125,-0.13191694021224976,-0.07032621651887894,-0.012071930803358555
1743927028682721000,3.890720947265625,-0.13901828229427338,-0.09057746827602386,0.022547539323568344
1743927028692766000,3.900765869140625,-0.1460341066122055,-0.10116513073444366,0.042947083711624146
1743927028702812000,3.91081201171875,-0.13673283159732819,-0.11419647932052612,0.016095172613859177
1743927028712857900,3.92085791015625,-0.07071680575609207,-0.1162407174706459,0.013778220862150192
1743927028722903000,3.930903076171875,0.06214803457260132,-0.05513155832886696,0.05705565586686134
1743927028732949000,3.940948974609375,0.1965007781982422,0.04624859243631363,0.07198426872491837
1743927028742994200,3.950994140625,0.27541565895080566,0.11830505728721619,0.032674890011548996
1743927028753040100,3.9610400390625,0.29731297492980957,0.12321432679891586,-0.014623118564486504
1743927028763086000,3.971086181640625,0.30026891827583313,0.09369682520627975,-0.060737550258636475
1743927028773132000,3.981132080078125,0.34345072507858276,0.10289645195007324,-0.1551351547241211
1743927028783178000,3.991177978515625,0.38873106241226196,0.14259856939315796,-0.2364099621772766
1743927028793223200,4.00122314453125,0.38606685400009155,0.12426537275314331,-0.32105720043182373
1743927028803269000,4.01126904296875,0.33530423045158386,0.0038686266634613276,-0.3857695460319519
1743927028813314000,4.02131396484375,0.2219715565443039,-0.08431103080511093,-0.3996155858039856
1743927028823360000,4.031360107421875,0.06262286007404327,-0.20449669659137726,-0.373757928609848
1743927028833406000,4.041406005859375,-0.0740034282207489,-0.2903708815574646,-0.3011798560619354
1743927028843451100,4.051451171875,-0.14652207493782043,-0.32857412099838257,-0.1678052693605423
1743927028853497000,4.0614970703125,-0.11329860240221024,-0.234935000538826,-0.05451999977231026
1743927028863542000,4.0715419921875,-0.024837922304868698,-0.03468777984380722,-0.00040105951484292746
1743927028873588000,4.081587890625,0.0445355586707592,0.14366917312145233,0.033520154654979706
1743927028883634200,4.09163427734375,0.0485447533428669,0.24537664651870728,0.03135892003774643
1743927028893679000,4.10167919921875,-0.022662313655018806,0.22867277264595032,0.023628031834959984
1743927028903725000,4.11172509765625,-0.0765245258808136,0.18113036453723907,0.010625439696013927
1743927028913770000,4.12177001953125,-0.07475592195987701,0.031827960163354874,0.010516516864299774
1743927028923816000,4.13181591796875,-0.03132732957601547,-0.21093280613422394,0.07126540690660477
1743927028933862000,4.14186181640625,0.05800201743841171,-0.3453811705112457,0.2409287393093109
1743927028943907000,4.151906982421875,0.18826088309288025,-0.3183721899986267,0.4482167661190033
1743927028953953000,4.161953125,0.36710307002067566,-0.2742878198623657,0.5801305770874023
1743927028963998000,4.171998046875,0.5610705018043518,-0.30793890357017517,0.6572875380516052
1743927028974044200,4.182044189453125,0.7003207802772522,-0.352562814950943,0.6968618631362915
1743927028984090000,4.192090087890625,0.7847874760627747,-0.36843249201774597,0.6536232233047485
1743927028994135000,4.202135009765625,0.8382341861724854,-0.36045950651168823,0.553849995136261
1743927029004181200,4.21218115234375,0.8772790431976318,-0.2585873603820801,0.4348958730697632
1743927029014226000,4.222225830078125,0.8966401815414429,-0.032225582748651505,0.33149516582489014
1743927029024272000,4.23227197265625,0.8914613127708435,0.3320792317390442,0.2399824857711792
1743927029034318000,4.242318115234375,0.8567667603492737,0.7209161520004272,0.1448972523212433
1743927029044363000,4.252363037109375,0.7872679829597473,1.0669708251953125,0.10857941210269928
1743927029054409000,4.262408935546875,0.7003043293952942,1.503805160522461,0.1402718424797058
1743927029064454100,4.2724541015625,0.6243128180503845,2.093165159225464,0.1486055999994278
1743927029074500000,4.2825,0.3995042145252228,1.9864627122879028,-0.06902126967906952
1743927029084546000,4.292546142578125,0.24075159430503845,1.4885445833206177,-0.0493379682302475
1743927029094591200,4.30259130859375,0.17344285547733307,-0.16964370012283325,-0.13187626004219055
1743927029104637200,4.31263720703125,0.23519697785377502,-1.585339069366455,-0.1224592849612236
1743927029114681900,4.322681884765625,0.3237191140651703,-2.051302671432495,-0.0005509596085175872
1743927029124728000,4.33272802734375,0.4213932156562805,-1.9727777242660522,0.11005431413650513
1743927029134774000,4.34277392578125,0.4907938838005066,-1.422213077545166,0.18294130265712738
1743927029144819000,4.35281884765625,0.5056101679801941,-0.7143228650093079,0.2078932523727417
1743927029154865200,4.362865234375,0.4840071499347687,-0.2453751116991043,0.17129503190517426
1743927029164910000,4.37291015625,0.42840123176574707,-0.11513002216815948,0.10235625505447388
1743927029174956000,4.3829560546875,0.31092122197151184,-0.1508488655090332,-0.008382509462535381
1743927029185001200,4.393001220703125,0.1496705561876297,-0.1589348167181015,-0.0964537039399147
1743927029195047200,4.403047119140625,0.019517887383699417,-0.08130340278148651,-0.15032252669334412
1743927029205092000,4.413092041015625,-0.037906464189291,0.07080024480819702,-0.20815809071063995
1743927029215138000,4.423137939453125,-0.050817470997571945,0.17806465923786163,-0.3034300208091736
1743927029225184000,4.43318408203125,-0.09585603326559067,0.11474096775054932,-0.3627704083919525
1743927029235229000,4.44322900390625,-0.16697469353675842,-0.037228062748909,-0.36039087176322937
1743927029245275100,4.453275146484375,-0.25258538126945496,-0.1382303386926651,-0.3134351074695587
1743927029255320000,4.463320068359375,-0.33597081899642944,-0.16967961192131042,-0.21773815155029297
1743927029265366000,4.473365966796875,-0.4029899537563324,-0.15956799685955048,-0.07451978325843811
1743927029275412000,4.483411865234375,-0.44563090801239014,-0.0766153335571289,0.07519514113664627
1743927029285457200,4.49345703125,-0.4647558033466339,0.05023874342441559,0.1945892721414566
1743927029295503000,4.503503173828125,-0.46589910984039307,0.16265423595905304,0.2892654240131378
1743927029305548300,4.51354833984375,-0.4789929687976837,0.21894559264183044,0.35026082396507263
1743927029315594000,4.523593994140625,-0.5014806985855103,0.1913752257823944,0.348739355802536
1743927029325640000,4.533639892578125,-0.5222362875938416,0.06337924301624298,0.2778668999671936
1743927029335685000,4.54368505859375,-0.5491533875465393,-0.07674111425876617,0.17108240723609924
1743927029345731000,4.55373095703125,-0.5837013125419617,-0.1928267776966095,0.06539979577064514
1743927029355776000,4.56377587890625,-0.6168369054794312,-0.3175290524959564,-0.012878227978944778
1743927029365822000,4.573822021484375,-0.6593013405799866,-0.44404080510139465,-0.06377210468053818
1743927029375868200,4.5838681640625,-0.697590172290802,-0.502166211605072,-0.11045544594526291
1743927029385913000,4.5939130859375,-0.7258604168891907,-0.48905715346336365,-0.14561711251735687
1743927029395959000,4.603958984375,-0.7177521586418152,-0.4366035461425781,-0.15534643828868866
1743927029406004200,4.614004150390625,-0.6949600577354431,-0.3328385055065155,-0.10921941697597504
1743927029416050000,4.6240498046875,-0.674189031124115,-0.22950252890586853,0.029085993766784668
1743927029426095900,4.634095947265625,-0.6962485909461975,-0.14273172616958618,0.2185063362121582
1743927029436141000,4.64414111328125,-0.7694807052612305,-0.11466892063617706,0.37379151582717896
1743927029446187000,4.65418701171875,-0.8437109589576721,-0.05530713498592377,0.40127506852149963
1743927029456232200,4.664232177734375,-0.8873351216316223,0.02079961635172367,0.3344009518623352
1743927029466278100,4.674278076171875,-0.8899746537208557,0.09146624803543091,0.22191423177719116
1743927029476324000,4.684323974609375,-0.842205822467804,0.1570844054222107,0.11678515374660492
1743927029486369000,4.694369140625,-0.776466429233551,0.2287331074476242,0.051151130348443985
1743927029496415200,4.704415283203125,-0.6965561509132385,0.3363008499145508,0.013373658061027527
1743927029506460200,4.714460205078125,-0.6227741241455078,0.410462886095047,-0.007408599369227886
1743927029516505900,4.724505859375,-0.5593874454498291,0.404714971780777,-0.008335646241903305
1743927029526552000,4.734552001953125,-0.487446129322052,0.35789963603019714,-0.042895637452602386
1743927029536597000,4.744596923828125,-0.4460054636001587,0.2683090269565582,-0.03502040356397629
1743927029546643000,4.754642822265625,-0.4293420612812042,0.15640072524547577,0.02803964540362358
1743927029556688100,4.764688232421875,-0.42421016097068787,0.04916827008128166,0.10327847301959991
1743927029566734000,4.774734130859375,-0.42115774750709534,-0.054611075669527054,0.15134410560131073
1743927029576779000,4.784779052734375,-0.44369742274284363,-0.1225922480225563,0.18156114220619202
1743927029586825200,4.7948251953125,-0.4554973542690277,-0.10213156789541245,0.1580897718667984
1743927029596871200,4.80487109375,-0.42518046498298645,-0.022100914269685745,0.08977676182985306
1743927029606916000,4.814916015625,-0.35698625445365906,0.0819670706987381,0.017077576369047165
1743927029616962000,4.824962158203125,-0.27895402908325195,0.18712358176708221,-0.028459548950195312
1743927029627008000,4.835008056640625,-0.20464128255844116,0.31431975960731506,-0.03907432034611702
1743927029637053000,4.845052978515625,-0.1256902664899826,0.4483500123023987,-0.03054235130548477
1743927029647099100,4.85509912109375,-0.07815612852573395,0.4860481917858124,0.03696658834815025
1743927029657144000,4.86514404296875,-0.049863509833812714,0.45718058943748474,0.08255751430988312
1743927029667190000,4.87518994140625,-0.017217908054590225,0.35380810499191284,0.05940308794379234
1743927029677235200,4.885235107421875,-0.002204337390139699,0.16747713088989258,-0.039745599031448364
1743927029687281200,4.89528125,-0.024887803941965103,-0.05302228033542633,-0.17014135420322418
1743927029697327000,4.9053271484375,-0.07409875839948654,-0.24886102974414825,-0.30426719784736633
1743927029707372300,4.915372314453125,-0.13950200378894806,-0.3886279761791229,-0.4047013819217682
1743927029717418000,4.92541796875,-0.184745654463768,-0.44031673669815063,-0.4330209195613861
1743927029727463000,4.935462890625,-0.20909711718559265,-0.38669419288635254,-0.3922622501850128
1743927029737509000,4.945509033203125,-0.2046770602464676,-0.25121039152145386,-0.3109290599822998
1743927029747555000,4.95555517578125,-0.16987210512161255,-0.08221065253019333,-0.24308423697948456
1743927029757600000,4.96560009765625,-0.13386589288711548,0.051332224160432816,-0.19445490837097168
1743927029767646000,4.97564599609375,-0.08234607428312302,0.1430511176586151,-0.188152477145195
1743927029777691100,4.985691162109375,-0.016282105818390846,0.22195790708065033,-0.18850454688072205
1743927029787737000,4.995737060546875,0.05503316968679428,0.2783726751804352,-0.18009242415428162
1743927029797783000,5.005782958984375,0.11188792437314987,0.31376102566719055,-0.15252791345119476
1743927029807828200,5.015828125,0.14691448211669922,0.33799460530281067,-0.10608880966901779
1743927029817874200,5.025874267578125,0.15637162327766418,0.34959322214126587,-0.06168299540877342
1743927029827919000,5.035919189453125,0.14098355174064636,0.3341040015220642,-0.04490633308887482
1743927029837965000,5.045965087890625,0.12558941543102264,0.30170878767967224,-0.08280178904533386
1743927029848011000,5.056010986328125,0.1120404377579689,0.2567138075828552,-0.15030929446220398
1743927029858056200,5.06605615234375,0.09309444576501846,0.19889099895954132,-0.22649328410625458
1743927029868102100,5.07610205078125,0.0659993514418602,0.1369827687740326,-0.2815636694431305
1743927029878147000,5.08614697265625,0.034969255328178406,0.09628540277481079,-0.3141375780105591
1743927029888193000,5.096193115234375,-0.0064156511798501015,0.0507756732404232,-0.27904850244522095
1743927029898239200,5.1062392578125,-0.044929489493370056,-0.01958024874329567,-0.20842334628105164
1743927029908284200,5.1162841796875,-0.05429675430059433,-0.10396107286214828,-0.13822370767593384
1743927029918330000,5.126330078125,-0.041992682963609695,-0.2454414963722229,-0.05604681745171547
1743927029928374500,5.13637451171875,-0.010663537308573723,-0.3874776363372803,0.023132547736167908
1743927029938420500,5.14642041015625,0.02155591920018196,-0.4554705321788788,0.08958826959133148
1743927029948466400,5.156466552734375,0.07103732228279114,-0.4324774742126465,0.14564305543899536
1743927029958511400,5.166511474609375,0.13770395517349243,-0.33359402418136597,0.17631174623966217
1743927029968557300,5.176557373046875,0.22282838821411133,-0.16436360776424408,0.18597523868083954
1743927029978602500,5.1866025390625,0.3134978413581848,0.0014858085196465254,0.18930739164352417
1743927029988648400,5.1966484375,0.3875696063041687,0.11899196356534958,0.21260659396648407
1743927029998694400,5.2066943359375,0.43598055839538574,0.1727265566587448,0.24043263494968414
1743927030008739600,5.216739501953125,0.47187647223472595,0.1487508863210678,0.2603042721748352
1743927030018785500,5.22678564453125,0.48532089591026306,0.08747634291648865,0.27614954113960266
1743927030028830500,5.23683056640625,0.4541657567024231,-0.012952042743563652,0.2910127639770508
1743927030038876400,5.24687646484375,0.36918535828590393,-0.05763216316699982,0.28078755736351013
1743927030048922600,5.256922607421875,0.26122424006462097,-0.0375402495265007,0.20895084738731384
1743927030058967300,5.26696728515625,0.17104293406009674,0.03077515959739685,0.09015415608882904
1743927030069013200,5.27701318359375,0.10541097074747086,0.15773196518421173,-0.056028109043836594
1743927030079058400,5.287058349609375,0.07511086016893387,0.30358320474624634,-0.17930929362773895
1743927030089104400,5.2971044921875,0.07878102362155914,0.4208683371543884,-0.23443955183029175
1743927030099150300,5.307150390625,0.1103898212313652,0.4975593686103821,-0.2147398740053177
1743927030109195500,5.317195556640625,0.17140434682369232,0.5381620526313782,-0.1591116338968277
1743927030119241500,5.327241455078125,0.23963719606399536,0.5291574001312256,-0.06220560148358345
1743927030129286400,5.337286376953125,0.2973317801952362,0.45462629199028015,0.07449422776699066
1743927030139332600,5.34733251953125,0.3349374830722809,0.31319937109947205,0.23450280725955963
1743927030149378600,5.357378662109375,0.34567132592201233,0.1291535496711731,0.38588643074035645
1743927030159423200,5.36742333984375,0.35618653893470764,-0.03321884199976921,0.472888708114624
1743927030169469400,5.377469482421875,0.3910808563232422,-0.1522020548582077,0.47707632184028625
1743927030179514400,5.387514404296875,0.4571900963783264,-0.24366964399814606,0.4093579947948456
1743927030189560300,5.397560302734375,0.5137737989425659,-0.2764943242073059,0.31970563530921936
1743927030199606500,5.4076064453125,0.5739144086837769,-0.26212257146835327,0.21770605444908142
1743927030209651500,5.4176513671875,0.6029015183448792,-0.1682698279619217,0.11183058470487595
1743927030219697400,5.427697509765625,0.6018519997596741,-0.056512124836444855,0.006858895532786846
1743927030229742600,5.43774267578125,0.5625684857368469,-0.018965017050504684,-0.11257428675889969
1743927030239788500,5.44778857421875,0.4706062078475952,-0.06877194344997406,-0.21420226991176605
1743927030249834500,5.45783447265625,0.33974409103393555,-0.13817808032035828,-0.29373010993003845
1743927030259879400,5.46787939453125,0.20020537078380585,-0.17961978912353516,-0.34204089641571045
1743927030269925400,5.47792529296875,0.08400454372167587,-0.18989935517311096,-0.37730860710144043
1743927030279970300,5.48797021484375,0.003590925596654415,-0.19063599407672882,-0.40164217352867126
1743927030290016500,5.4980166015625,-0.03310390189290047,-0.1737711876630783,-0.4415987432003021
1743927030300062500,5.5080625,-0.022615842521190643,-0.12898986041545868,-0.4887169897556305
1743927030310107400,5.518107421875,0.024818457663059235,-0.04965363070368767,-0.5329613089561462
1743927030320153600,5.528153564453125,0.09070772677659988,0.04445662349462509,-0.5472443699836731
1743927030330198500,5.538198486328125,0.15430456399917603,0.11467587202787399,-0.5290660262107849
1743927030340244500,5.548244384765625,0.19671380519866943,0.1452566683292389,-0.48727333545684814
1743927030350290400,5.55829052734375,0.22262826561927795,0.1516852080821991,-0.43250516057014465
1743927030360335400,5.56833544921875,0.21646465361118317,0.16215568780899048,-0.37249457836151123
1743927030370381300,5.57838134765625,0.18863791227340698,0.16477370262145996,-0.31379884481430054
1743927030380426500,5.588426513671875,0.1504812091588974,0.1130114421248436,-0.2886391580104828
1743927030390472400,5.598472412109375,0.10531564801931381,-0.00720916036516428,-0.305189311504364
1743927030400518400,5.608518310546875,0.04656365141272545,-0.12238342314958572,-0.35279732942581177
1743927030410563600,5.6185634765625,-0.022377945482730865,-0.21195214986801147,-0.3989331126213074
1743927030420609500,5.628609619140625,-0.08828292042016983,-0.2815234959125519,-0.41398584842681885
1743927030430654500,5.638654541015625,-0.1259535700082779,-0.30586743354797363,-0.4037248492240906
1743927030440700400,5.648700439453125,-0.13098028302192688,-0.2886711359024048,-0.3709261417388916
1743927030450746600,5.65874658203125,-0.10467102378606796,-0.22200161218643188,-0.31421494483947754
1743927030460791300,5.668791259765625,-0.0622284971177578,-0.15361110866069794,-0.23222100734710693
1743927030470837200,5.678837158203125,-0.03014732152223587,-0.10911775380373001,-0.12834453582763672
1743927030480882400,5.68888232421875,-0.01876603625714779,-0.08895044028759003,-0.02977801486849785
1743927030490928400,5.698928466796875,-0.02620586007833481,-0.07131913304328918,0.0351497083902359
1743927030500974300,5.708974365234375,-0.0396907739341259,-0.06812786310911179,0.030531253665685654
1743927030511019500,5.71901953125,-0.04158826172351837,-0.11021391302347183,-0.02798118069767952
1743927030521065500,5.7290654296875,-0.049854181706905365,-0.16136737167835236,-0.10206525772809982
1743927030531110400,5.7391103515625,-0.07130685448646545,-0.15661656856536865,-0.1420852094888687
1743927030541156600,5.749156494140625,-0.08489777147769928,-0.15932953357696533,-0.12167926877737045
1743927030551202600,5.75920263671875,-0.07453836500644684,-0.15788432955741882,-0.07760549336671829
1743927030561247200,5.769247314453125,-0.043512798845767975,-0.10800120234489441,-0.04094681888818741
1743927030571293400,5.77929345703125,0.005889032501727343,-0.05009877309203148,-0.038788508623838425
1743927030581338400,5.78933837890625,0.05277611315250397,-0.008191803470253944,-0.08180628716945648
1743927030591384300,5.79938427734375,0.0849711075425148,0.06506481766700745,-0.16366370022296906
1743927030601430500,5.809430419921875,0.09401839971542358,0.1779886931180954,-0.2404961735010147
1743927030611475500,5.819475341796875,0.08109702914953232,0.2694393992424011,-0.26842671632766724
1743927030621521400,5.829521484375,0.029897751286625862,0.3029840588569641,-0.27596452832221985
1743927030631566600,5.839566650390625,-0.07239597290754318,0.26821354031562805,-0.26822492480278015
1743927030641612500,5.849612548828125,-0.21552836894989014,0.12438474595546722,-0.2569613754749298
1743927030651658500,5.859658447265625,-0.39184847474098206,-0.0893186703324318,-0.2519204318523407
1743927030661703400,5.869703369140625,-0.5651617050170898,-0.22942757606506348,-0.24918295443058014
1743927030671749400,5.879749267578125,-0.6947368383407593,-0.24847066402435303,-0.22897787392139435
1743927030681794300,5.889794189453125,-0.72163987159729,-0.24218213558197021,-0.1974298059940338
1743927030691840500,5.899840576171875,-0.6172552704811096,-0.3025755286216736,-0.17902988195419312
1743927030701886500,5.909886474609375,-0.42532792687416077,-0.3800194561481476,-0.1843378245830536
1743927030711931400,5.919931396484375,-0.23029674589633942,-0.4201171100139618,-0.21075594425201416
1743927030721977600,5.9299775390625,-0.03493523970246315,-0.4015945494174957,-0.2341025471687317
1743927030732022500,5.9400224609375,0.1767044961452484,-0.3282579779624939,-0.20767323672771454
1743927030742068500,5.950068359375,0.35922771692276,-0.20436346530914307,-0.11543171852827072
1743927030752114400,5.960114501953125,0.47592031955718994,-0.009662352502346039,0.01735023222863674
1743927030762159400,5.970159423828125,0.5074380040168762,0.22384494543075562,0.15738056600093842
1743927030772205300,5.980205322265625,0.48015549778938293,0.42090457677841187,0.2669036388397217
1743927030782250500,5.99025048828125,0.4063963294029236,0.4844052493572235,0.34389322996139526
1743927030792296400,6.00029638671875,0.2867836356163025,0.4832826554775238,0.4086589813232422
1743927030802342400,6.01034228515625,0.11270347237586975,0.5158925652503967,0.42076143622398376
1743927030812387600,6.0203876953125,-0.06398731470108032,0.49348607659339905,0.3621993362903595
1743927030822433500,6.03043359375,-0.21256400644779205,0.36814308166503906,0.26745206117630005
1743927030832478500,6.040478515625,-0.3196162283420563,0.17697103321552277,0.12753909826278687
1743927030842524400,6.0505244140625,-0.3952209949493408,-0.05823217332363129,-0.04292505607008934
1743927030852570600,6.060570556640625,-0.41873762011528015,-0.24354946613311768,-0.20152629911899567
1743927030862615300,6.070615234375,-0.3681066632270813,-0.3043544888496399,-0.3178965747356415
1743927030872661200,6.0806611328125,-0.26429545879364014,-0.2856936454772949,-0.365705281496048
1743927030882706400,6.09070654296875,-0.15340566635131836,-0.21272891759872437,-0.34415072202682495
1743927030892752400,6.10075244140625,-0.0664529949426651,-0.1160820797085762,-0.28293195366859436
1743927030902798300,6.11079833984375,-0.008330303244292736,-0.04259641468524933,-0.17808808386325836
1743927030912843500,6.120843505859375,0.020300477743148804,-0.02548222243785858,-0.04505025967955589
1743927030922889500,6.130889404296875,0.01811961457133293,-0.04982564598321915,0.10089443624019623
1743927030932935200,6.14093505859375,-0.005844459868967533,-0.0659358948469162,0.23196172714233398
1743927030942981000,6.150981201171875,-0.033027343451976776,-0.061171773821115494,0.29498913884162903
1743927030953027300,6.16102734375,-0.053013209253549576,-0.04662040248513222,0.2833097279071808
1743927030963072000,6.171072021484375,-0.05507635697722435,-0.03110429272055626,0.1900024265050888
1743927030973118000,6.181117919921875,-0.03726562112569809,-0.02178037352859974,0.03697609528899193
1743927030983163100,6.1911630859375,0.0066459099762141705,0.004887989256531,-0.12204817682504654
1743927030993209000,6.201208984375,0.05773000419139862,0.017515206709504128,-0.212068572640419
1743927031003255000,6.211255126953125,0.07221014052629471,0.034224942326545715,-0.2137458324432373
1743927031013300200,6.22130029296875,0.03787684068083763,0.09965123981237411,-0.17506417632102966
1743927031023346200,6.23134619140625,-0.005247460212558508,0.1146557554602623,-0.0868791863322258
1743927031033391400,6.241391357421875,-0.04288380593061447,0.08455820381641388,0.03321239352226257
1743927031043437300,6.251437255859375,-0.0655537024140358,0.07984787225723267,0.15727229416370392
1743927031053483300,6.261483154296875,-0.0752192959189415,0.10995247960090637,0.2637370228767395
1743927031063528000,6.27152783203125,-0.06399087607860565,0.1349278688430786,0.33124256134033203
1743927031073574100,6.28157421875,-0.04108786955475807,0.1703701913356781,0.3586755692958832
1743927031083619000,6.291619140625,0.0015903515741229057,0.1980912983417511,0.3170809745788574
1743927031093665000,6.3016650390625,0.0569782480597496,0.17302477359771729,0.23908719420433044
1743927031103711200,6.311711181640625,0.12727078795433044,0.11861826479434967,0.16003897786140442
1743927031113756200,6.321756103515625,0.2014496773481369,0.0618695504963398,0.12687456607818604
1743927031123802000,6.331802001953125,0.2592906057834625,0.036880310624837875,0.1371956467628479
1743927031133847300,6.341847412109375,0.3001343905925751,0.047498349100351334,0.1599378138780594
1743927031143893200,6.351893310546875,0.31824976205825806,0.06998821347951889,0.17372927069664001
1743927031153939200,6.361939208984375,0.30739349126815796,0.08017747849225998,0.19100819528102875
1743927031163984100,6.371984130859375,0.27140697836875916,0.0853397473692894,0.2206539809703827
1743927031174030000,6.382030029296875,0.2275218516588211,0.08613713085651398,0.24900095164775848
1743927031184075000,6.392074951171875,0.19144080579280853,0.0743478536605835,0.26893553137779236
1743927031194121200,6.402121337890625,0.2123565375804901,0.052710872143507004,0.24705049395561218
1743927031204167200,6.412167236328125,0.27134183049201965,-0.025339985266327858,0.2049294114112854
1743927031214212000,6.422212158203125,0.3151666224002838,-0.16911177337169647,0.18772371113300323
1743927031224258300,6.43225830078125,0.32279685139656067,-0.268237829208374,0.2037721872329712
1743927031234303200,6.44230322265625,0.314934104681015,-0.325358122587204,0.2592279613018036
1743927031244349200,6.45234912109375,0.3003618121147156,-0.3314892649650574,0.292149156332016
1743927031254395100,6.46239501953125,0.28616586327552795,-0.22689864039421082,0.2675517201423645
1743927031264440000,6.472440185546875,0.30301886796951294,-0.02450585924088955,0.1668197512626648
1743927031274486000,6.482486083984375,0.34055402874946594,0.23528894782066345,0.026884660124778748
1743927031284531200,6.49253125,0.3840996325016022,0.39755773544311523,-0.08417261391878128
1743927031294577200,6.5025771484375,0.4015742242336273,0.4584517776966095,-0.11564449965953827
1743927031304623000,6.512623046875,0.3769508898258209,0.4517403542995453,-0.05842169001698494
1743927031314668300,6.522668212890625,0.32849764823913574,0.3241310715675354,0.0712117850780487
1743927031324714200,6.53271435546875,0.2646414637565613,0.107811838388443,0.23918160796165466
1743927031334759200,6.54275927734375,0.20001345872879028,-0.12671731412410736,0.42812463641166687
1743927031344805000,6.55280517578125,0.13091081380844116,-0.32173848152160645,0.6023286581039429
1743927031354851300,6.562851318359375,0.08000796288251877,-0.4141358435153961,0.7227499485015869
1743927031364896000,6.57289599609375,0.07100647687911987,-0.4099903702735901,0.7754078507423401
1743927031374942000,6.58294189453125,0.0918906033039093,-0.344990074634552,0.7529777884483337
1743927031384987100,6.592987060546875,0.11442627757787704,-0.22368893027305603,0.6547444462776184
1743927031395033000,6.603033203125,0.13703614473342896,-0.08736278861761093,0.49159014225006104
1743927031405079000,6.6130791015625,0.159860759973526,0.06049751117825508,0.27514705061912537
1743927031415124200,6.623124267578125,0.1618838608264923,0.17532038688659668,0.07384461164474487
1743927031425170200,6.633170166015625,0.10432788729667664,0.2028699815273285,-0.05927961692214012
1743927031435215400,6.64321533203125,0.0018202057108283043,0.1448121964931488,-0.14410185813903809
1743927031445261300,6.65326123046875,-0.11541827023029327,0.04659801721572876,-0.20795221626758575
1743927031455307300,6.663307373046875,-0.2006600797176361,-0.0695783793926239,-0.271790474653244
1743927031465352000,6.67335205078125,-0.22839690744876862,-0.17415538430213928,-0.33114248514175415
1743927031475398100,6.683398193359375,-0.19696299731731415,-0.25883275270462036,-0.396931916475296
1743927031485443000,6.693443115234375,-0.1243111714720726,-0.28490057587623596,-0.45598137378692627
1743927031495489000,6.703489013671875,-0.03164289519190788,-0.25151151418685913,-0.4673614203929901
1743927031505535200,6.71353515625,0.07281133532524109,-0.18888115882873535,-0.412002295255661
1743927031515580200,6.723580078125,0.17570063471794128,-0.11837564408779144,-0.29158490896224976
1743927031525626000,6.733626220703125,0.2582966983318329,-0.05042535811662674,-0.14495155215263367
1743927031535671300,6.74367138671875,0.3094950020313263,-0.001501256600022316,-0.010220373049378395
1743927031545717200,6.75371728515625,0.32803139090538025,0.039848580956459045,0.08467711508274078
1743927031555763200,6.76376318359375,0.32580462098121643,0.07724745571613312,0.14377589523792267
1743927031565808000,6.77380810546875,0.30046623945236206,0.1611516773700714,0.1590898633003235
1743927031575854000,6.78385400390625,0.25384679436683655,0.2764721214771271,0.16156767308712006
1743927031585899000,6.79389892578125,0.17208987474441528,0.3466711938381195,0.15095657110214233
1743927031595945200,6.8039453125,0.06327365338802338,0.3038286566734314,0.11846333742141724
1743927031605991200,6.8139912109375,-0.06182408332824707,0.14470478892326355,0.027638893574476242
1743927031616036000,6.8240361328125,-0.19435478746891022,-0.12143705785274506,-0.08270107954740524
1743927031626082300,6.834082275390625,-0.3265032470226288,-0.4243772029876709,-0.2030559778213501
1743927031636127200,6.844127197265625,-0.4086117744445801,-0.7055001854896545,-0.3011676073074341
1743927031646173200,6.854173095703125,-0.4360029399394989,-0.8520193099975586,-0.35686734318733215
1743927031656219100,6.86421923828125,-0.41321831941604614,-0.8086787462234497,-0.3683495819568634
1743927031666264000,6.87426416015625,-0.36817654967308044,-0.6575235724449158,-0.30470746755599976
1743927031676310000,6.88431005859375,-0.3035091459751129,-0.46376800537109375,-0.18578645586967468
1743927031686355200,6.894355224609375,-0.20550189912319183,-0.22261637449264526,-0.044113464653491974
1743927031696401200,6.904401123046875,-0.08320505917072296,0.07190075516700745,0.09108386933803558
1743927031706447000,6.914447021484375,0.0455704927444458,0.3568699359893799,0.23022231459617615
1743927031716492300,6.9244921875,0.1536482870578766,0.5877205729484558,0.3653378188610077
1743927031726538200,6.934538330078125,0.23575647175312042,0.7536137104034424,0.48286765813827515
1743927031736584200,6.944584228515625,0.2770066261291504,0.8401893377304077,0.5668842196464539
1743927031746629000,6.954629150390625,0.2931613624095917,0.8350116610527039,0.5946418046951294
1743927031756675300,6.96467529296875,0.26915642619132996,0.7148651480674744,0.5257022976875305
1743927031766720000,6.974719970703125,0.19140703976154327,0.4758499562740326,0.38529324531555176
1743927031776766000,6.984765869140625,0.040528010576963425,0.22762364149093628,0.19298036396503448
1743927031786812200,6.994812255859375,-0.14356006681919098,0.03703531250357628,-0.030587751418352127
1743927031796857000,7.004857177734375,-0.3213941752910614,-0.08084750920534134,-0.21645477414131165
1743927031806903000,7.014903076171875,-0.4697439670562744,-0.12606611847877502,-0.29867348074913025
1743927031816948200,7.0249482421875,-0.5927561521530151,-0.025162383913993835,-0.304088830947876
1743927031826994200,7.034994140625,-0.6745303273200989,0.18051062524318695,-0.2818085551261902
1743927031837040000,7.0450400390625,-0.7152281403541565,0.34842169284820557,-0.260958731174469
1743927031847085300,7.055085205078125,-0.7346420288085938,0.3464541733264923,-0.2327055186033249
1743927031857131300,7.06513134765625,-0.7272571921348572,0.2711239755153656,-0.17246755957603455
1743927031867176000,7.075176025390625,-0.6854045391082764,0.1655285805463791,-0.07911232113838196
1743927031877222100,7.08522216796875,-0.6343710422515869,0.025550836697220802,0.05334021896123886
1743927031887268000,7.09526806640625,-0.6015790104866028,-0.10771587491035461,0.2156612128019333
1743927031897313000,7.10531298828125,-0.6023769378662109,-0.19697226583957672,0.376997172832489
1743927031907359200,7.115359130859375,-0.6128556728363037,-0.26168176531791687,0.5009377598762512
1743927031917404200,7.125404052734375,-0.5996934175491333,-0.3038104772567749,0.5831804871559143
1743927031927449600,7.13544970703125,-0.5588011145591736,-0.26868125796318054,0.6226139068603516
1743927031937495800,7.145495849609375,-0.495238333940506,-0.1794436275959015,0.6334506869316101
1743927031947540700,7.155540771484375,-0.41744711995124817,-0.09658922255039215,0.6341679096221924
1743927031957586700,7.165586669921875,-0.3303881287574768,-0.05922551080584526,0.6092337965965271
1743927031967632000,7.1756318359375,-0.25058168172836304,-0.0359761118888855,0.5594177842140198
1743927031977677600,7.185677490234375,-0.1684626340866089,0.00255238963291049,0.4809231162071228
1743927031987723500,7.1957236328125,-0.08350779861211777,0.055497631430625916,0.3767109513282776
1743927031997768700,7.205768798828125,-0.00411299429833889,0.1121787577867508,0.25112220644950867
1743927032007814700,7.215814697265625,0.05433247238397598,0.15899686515331268,0.10034015029668808
1743927032017859600,7.225859619140625,0.08226344734430313,0.15565960109233856,-0.05106980353593826
1743927032027905800,7.23590576171875,0.07965541630983353,0.10837757587432861,-0.19295130670070648
1743927032037951700,7.24595166015625,0.05384533107280731,0.023499829694628716,-0.319151371717453
1743927032047996700,7.25599658203125,0.0009552193805575371,-0.07578174769878387,-0.42372679710388184
1743927032058043000,7.26604296875,-0.07100272178649902,-0.16315250098705292,-0.5009956955909729
1743927032068087800,7.276087890625,-0.13247966766357422,-0.23563389480113983,-0.5687875151634216
1743927032078133500,7.286133544921875,-0.1577230542898178,-0.2772819697856903,-0.6429663896560669
1743927032088179700,7.2961796875,-0.14857083559036255,-0.29072561860084534,-0.724833071231842
1743927032098224600,7.306224609375,-0.11327493190765381,-0.27535197138786316,-0.8013468384742737
1743927032108270600,7.3162705078125,-0.06134062632918358,-0.27041420340538025,-0.8305596113204956
1743927032118315800,7.326315673828125,-0.012249765917658806,-0.2489050328731537,-0.7923829555511475
1743927032128361700,7.33636181640625,0.026315737515687943,-0.18464215099811554,-0.6833488941192627
1743927032138407700,7.34640771484375,0.0736851915717125,-0.11117967963218689,-0.5626140236854553
1743927032148452900,7.356452880859375,0.10859470814466476,-0.03305584937334061,-0.4526374340057373
1743927032158498800,7.366498779296875,0.1282045692205429,0.07650752365589142,-0.37765058875083923
1743927032168543700,7.376543701171875,0.13469310104846954,0.16482779383659363,-0.3515518605709076
1743927032178589700,7.386589599609375,0.12864108383655548,0.21800601482391357,-0.34592828154563904
1743927032188635600,7.3966357421875,0.1071845144033432,0.23679780960083008,-0.3438877761363983
1743927032198680600,7.4066806640625,0.07631959021091461,0.24224603176116943,-0.3247711658477783
1743927032208726500,7.4167265625,0.05392400920391083,0.2181667983531952,-0.28489190340042114
1743927032218771700,7.426771728515625,0.035913221538066864,0.17949864268302917,-0.21535184979438782
1743927032228817700,7.436817626953125,0.023026982322335243,0.14678436517715454,-0.14470484852790833
1743927032238863600,7.446863525390625,0.02123419940471649,0.1271412968635559,-0.10395605117082596
1743927032248908800,7.45690869140625,0.04660720005631447,0.10153073817491531,-0.09957008808851242
1743927032258954800,7.466954833984375,0.08308490365743637,0.07263299822807312,-0.10848991572856903
1743927032269000000,7.477,0.13587966561317444,0.06113932654261589,-0.11400079727172852
1743927032279045600,7.487045654296875,0.19153207540512085,0.06335308402776718,-0.08519333600997925
1743927032289091600,7.497091552734375,0.24694101512432098,0.0853009894490242,-0.015515456907451153
1743927032299136500,7.507136474609375,0.28632408380508423,0.10158781707286835,0.08111095428466797
1743927032309182700,7.5171826171875,0.3037150502204895,0.09402310848236084,0.18646720051765442
1743927032319228700,7.527228759765625,0.3081793189048767,0.07448482513427734,0.2541874051094055
1743927032329273600,7.537273681640625,0.30927547812461853,0.06631611287593842,0.272201269865036
1743927032339319800,7.54731982421875,0.31574296951293945,0.038117025047540665,0.2289258986711502
1743927032349364700,7.55736474609375,0.32818204164505005,0.007586279883980751,0.1494816690683365
1743927032359410700,7.56741064453125,0.3476962447166443,0.0003100959584116936,0.057027947157621384
1743927032369455900,7.577455810546875,0.39120855927467346,0.004683539271354675,-0.026218470185995102
1743927032379501600,7.58750146484375,0.4658685326576233,0.019385050982236862,-0.07101202756166458
1743927032389547500,7.597547607421875,0.5404442548751831,-0.0016720308922231197,-0.07622703164815903
1743927032399592700,7.6075927734375,0.5887763500213623,-0.06293869763612747,-0.044974423944950104
1743927032409638700,7.617638671875,0.5931764245033264,-0.12850944697856903,0.01782318204641342
1743927032419684600,7.6276845703125,0.5528626441955566,-0.17726017534732819,0.08335081487894058
1743927032429729800,7.637729736328125,0.4672321081161499,-0.172845721244812,0.13391278684139252
1743927032439775700,7.647775634765625,0.36440983414649963,-0.08449523150920868,0.1505909562110901
1743927032449820700,7.657820556640625,0.29770562052726746,0.0711233839392662,0.14257457852363586
1743927032459867000,7.667866943359375,0.2805474102497101,0.27660566568374634,0.10089840739965439
1743927032469912800,7.677912841796875,0.2793268859386444,0.4554766118526459,0.04682505130767822
1743927032479957500,7.68795751953125,0.2988539934158325,0.5755971670150757,-0.017955178394913673
1743927032490003700,7.698003662109375,0.3403431177139282,0.6006540656089783,-0.08633077144622803
1743927032500048600,7.708048583984375,0.3952191472053528,0.5432605743408203,-0.14742794632911682
1743927032510094600,7.718094482421875,0.4581342041492462,0.4187591075897217,-0.18898791074752808
1743927032520140500,7.728140625,0.5316682457923889,0.24858331680297852,-0.18794620037078857
1743927032530185700,7.738185791015625,0.5718817114830017,0.06765799969434738,-0.13956402242183685
1743927032540231700,7.748231689453125,0.5699578523635864,-0.10153435170650482,-0.04745304584503174
1743927032550276900,7.75827685546875,0.5272015929222107,-0.26146063208580017,0.07361851632595062
1743927032560322800,7.76832275390625,0.46161168813705444,-0.39598047733306885,0.21897949278354645
1743927032570368800,7.77836865234375,0.37392738461494446,-0.44715365767478943,0.38008394837379456
1743927032580413700,7.78841357421875,0.25624680519104004,-0.3885778784751892,0.5265200138092041
1743927032590459600,7.798459716796875,0.14289414882659912,-0.2888946831226349,0.6265614032745361
1743927032600504600,7.808504638671875,0.05840819701552391,-0.201155886054039,0.6607772707939148
1743927032610550500,7.818550537109375,0.005764162167906761,-0.09660205245018005,0.636473536491394
1743927032620596700,7.8285966796875,-0.01082553993910551,-0.015063008293509483,0.5532171130180359
1743927032630641700,7.8386416015625,0.04041580855846405,0.030770525336265564,0.42903974652290344
1743927032640687600,7.8486875,0.13141188025474548,0.06560733914375305,0.2709450423717499
1743927032650732800,7.85873291015625,0.23641259968280792,0.03695359453558922,0.12946248054504395
1743927032660778800,7.86877880859375,0.315157413482666,-0.030038680881261826,0.007321140728890896
1743927032670824700,7.87882470703125,0.33246102929115295,-0.07910875231027603,-0.06834273040294647
1743927032680870000,7.888869873046875,0.28990811109542847,-0.09758495539426804,-0.08839020878076553
1743927032690915600,7.89891552734375,0.24538616836071014,-0.12024100124835968,-0.0789375826716423
1743927032700960500,7.90896044921875,0.18279573321342468,-0.11295996606349945,-0.05979931727051735
1743927032711006700,7.9190068359375,0.1207297071814537,-0.09491411596536636,-0.03621995449066162
1743927032721052700,7.929052734375,0.06262276321649551,-0.05917824059724808,-0.018986469134688377
1743927032731097600,7.93909765625,0.007487606257200241,-0.020902223885059357,-0.0006013374077156186
1743927032741143800,7.949143798828125,-0.05159462243318558,0.04724700376391411,0.0019758036360144615
1743927032751188700,7.959188720703125,-0.09236415475606918,0.09337934106588364,-0.021616075187921524
1743927032761234700,7.969234619140625,-0.1054292842745781,0.06230667233467102,-0.08453812450170517
1743927032771280600,7.97928076171875,-0.08881648629903793,0.003113388316705823,-0.17536844313144684
1743927032781326800,7.989326904296875,-0.055027153342962265,-0.07566624879837036,-0.2802448272705078
1743927032791371500,7.99937158203125,-0.00716082938015461,-0.1515897661447525,-0.37597399950027466
1743927032801417500,8.00941748046875,0.03630489110946655,-0.18301694095134735,-0.43877214193344116
1743927032811462700,8.019462646484374,0.06931498646736145,-0.15347516536712646,-0.4389386475086212
1743927032821508600,8.029508544921875,0.11431713402271271,-0.11135847121477127,-0.3916882872581482
1743927032831554600,8.039554443359375,0.17239774763584137,-0.06637608259916306,-0.3212924003601074
1743927032841599700,8.049599853515625,0.2514371871948242,-0.0016127380076795816,-0.24680358171463013
1743927032851645700,8.059645751953125,0.32983478903770447,0.05740451067686081,-0.15127678215503693
1743927032861691000,8.06969091796875,0.3721950352191925,0.14862990379333496,-0.0893087163567543
1743927032871736800,8.07973681640625,0.376263827085495,0.2586056590080261,-0.06719116866588593
1743927032881782800,8.08978271484375,0.3330065608024597,0.317454069852829,-0.053504571318626404
1743927032891827500,8.099827392578124,0.25566545128822327,0.256527841091156,-0.03716953843832016
1743927032901873700,8.109873779296874,0.15278704464435577,0.15199854969978333,-0.01986616663634777
1743927032911918600,8.119918701171875,0.04288557171821594,0.10330583900213242,-0.016948940232396126
1743927032921964500,8.129964599609375,-0.07065053284168243,0.14397169649600983,-0.03033587709069252
1743927032932011000,8.140010986328125,-0.17891627550125122,0.22632941603660583,-0.04288681969046593
1743927032942056200,8.15005615234375,-0.25711748003959656,0.2192072719335556,-0.04217897355556488
1743927032952102100,8.16010205078125,-0.27498647570610046,0.15596358478069305,-0.03878610581159592
1743927032962148000,8.170148193359376,-0.24078071117401123,0.09218621999025345,-0.039444081485271454
1743927032972193000,8.180193115234376,-0.16990254819393158,0.02839045785367489,-0.053593993186950684
1743927032982239000,8.190239013671874,-0.1002916470170021,0.011214619502425194,-0.06400199979543686
1743927032992284200,8.2002841796875,-0.03065558150410652,0.0015923520550131798,-0.06673520058393478
1743927033002330000,8.210330078125,0.03456266596913338,-0.03285125270485878,-0.04957685247063637
1743927033012376000,8.2203759765625,0.08869434893131256,-0.08303079754114151,-0.014249222353100777
1743927033022421200,8.230421142578125,0.1007416620850563,-0.11693879961967468,0.04326632246375084
1743927033032467200,8.24046728515625,0.03252638876438141,-0.12399457395076752,0.14332449436187744
1743927033042512100,8.25051220703125,-0.10908525437116623,-0.09235306084156036,0.2809084355831146
1743927033052558000,8.26055810546875,-0.28821560740470886,0.0026869038119912148,0.438795268535614
1743927033062604300,8.270604248046874,-0.4589930474758148,0.1688683182001114,0.5386366248130798
1743927033072649000,8.28064892578125,-0.5699830055236816,0.2727491855621338,0.5673447251319885
1743927033082695000,8.29069482421875,-0.598628580570221,0.30887851119041443,0.5326110124588013
1743927033092740000,8.300739990234375,-0.5524299740791321,0.3335135579109192,0.4325038194656372
1743927033102786000,8.3107861328125,-0.45037680864334106,0.32937297224998474,0.30014270544052124
1743927033112832000,8.32083203125,-0.33678102493286133,0.30828794836997986,0.17880642414093018
1743927033122877200,8.330877197265625,-0.25044873356819153,0.23041453957557678,0.11932803690433502
1743927033132923100,8.340923095703126,-0.22382377088069916,0.12166594713926315,0.13487796485424042
1743927033142968000,8.350968017578126,-0.26018038392066956,0.029026638716459274,0.22545085847377777
1743927033153014300,8.36101416015625,-0.30511191487312317,-0.028907768428325653,0.34641268849372864
1743927033163060200,8.371060302734374,-0.32079365849494934,-0.04540291056036949,0.46100565791130066
1743927033173104000,8.381104248046874,-0.3210914134979248,0.020105792209506035,0.5457746386528015
1743927033183150000,8.391150146484375,-0.33857011795043945,0.18761046230793,0.5993878245353699
1743927033193196000,8.401196044921875,-0.3670044243335724,0.37137123942375183,0.6299723386764526
1743927033203241200,8.4112412109375,-0.4007727801799774,0.46089160442352295,0.6288998126983643
1743927033213287200,8.421287109375,-0.4213728606700897,0.40413936972618103,0.6080496907234192
1743927033223332000,8.43133203125,-0.42011454701423645,0.2225130796432495,0.5738466382026672
1743927033233378000,8.4413779296875,-0.4093540608882904,0.008838079869747162,0.5079754590988159
1743927033243424300,8.45142431640625,-0.3974166512489319,-0.1737685650587082,0.41519567370414734
1743927033253469000,8.461468994140626,-0.3768666386604309,-0.3100837767124176,0.2850651144981384
1743927033263515000,8.471514892578124,-0.3453473448753357,-0.4122162163257599,0.13335779309272766
1743927033273560000,8.48156005859375,-0.3070811629295349,-0.4360957145690918,-0.038023822009563446
1743927033283606000,8.49160595703125,-0.24433282017707825,-0.3560599088668823,-0.2252046912908554
1743927033293652000,8.50165185546875,-0.15972179174423218,-0.20705391466617584,-0.41543906927108765
1743927033303697200,8.511697265625,-0.05765564367175102,-0.05705535411834717,-0.5776363611221313
1743927033313743000,8.5217431640625,0.026519153267145157,0.04186270385980606,-0.6853039264678955
1743927033323789000,8.5317890625,0.05541460961103439,0.09176947921514511,-0.7363311648368835
1743927033333834200,8.541834228515626,0.02631957456469536,0.12147410959005356,-0.7214155793190002
1743927033343880200,8.551880126953124,-0.028713783249258995,0.10453622043132782,-0.6539720296859741
1743927033353924900,8.5619248046875,-0.08438663184642792,0.044344786554574966,-0.5691927075386047
1743927033363971000,8.57197119140625,-0.13188683986663818,-0.046114884316921234,-0.4813052713871002
1743927033374017000,8.58201708984375,-0.20525053143501282,-0.06207893788814545,-0.4060286283493042
1743927033384062000,8.59206201171875,-0.28485167026519775,-0.0934506356716156,-0.3245084583759308
1743927033394108200,8.602108154296875,-0.34695950150489807,-0.11681242287158966,-0.25633713603019714
1743927033404153000,8.612153076171875,-0.3648543655872345,-0.10172251611948013,-0.21293845772743225
1743927033414199000,8.622198974609375,-0.35048767924308777,-0.04989632964134216,-0.19727668166160583
1743927033424245000,8.632244873046876,-0.3022215664386749,-0.0025263389106839895,-0.20776009559631348
1743927033434290200,8.642290283203126,-0.21552154421806335,0.05434280261397362,-0.23690971732139587
1743927033444336000,8.652336181640624,-0.11326903104782104,0.09584260731935501,-0.26208990812301636
1743927033454381000,8.662381103515624,-0.03189508244395256,0.08336888998746872,-0.25588953495025635
1743927033464427000,8.672427001953125,0.017664505168795586,0.056327786296606064,-0.22785687446594238
1743927033474473000,8.682472900390625,0.02724975347518921,0.02512219548225403,-0.182587131857872
1743927033484518100,8.69251806640625,0.01544930413365364,-0.02802981808781624,-0.1334647238254547
1743927033494564000,8.702564208984375,-0.005367560312151909,-0.10663221776485443,-0.09982740134000778
1743927033504609000,8.712609130859375,-0.03009682521224022,-0.17554424703121185,-0.08611108362674713
1743927033514655200,8.7226552734375,-0.04403208568692207,-0.2114551067352295,-0.09697464853525162
1743927033524701200,8.732701171875,-0.03569064289331436,-0.2253589630126953,-0.10910455882549286
1743927033534746000,8.74274609375,-0.006018234882503748,-0.24600377678871155,-0.1161281168460846
1743927033544792000,8.7527919921875,0.022188877686858177,-0.26680049300193787,-0.08677690476179123
1743927033554838300,8.76283837890625,0.0689726248383522,-0.2578173875808716,-0.03593077138066292
1743927033564883000,8.772883056640625,0.12889276444911957,-0.21986624598503113,0.03107002004981041
1743927033574929000,8.782928955078125,0.1941327452659607,-0.15249545872211456,0.07832514494657516
1743927033584974000,8.79297412109375,0.25659453868865967,-0.04288582503795624,0.09859439730644226
1743927033595020000,8.80302001953125,0.30059394240379333,0.07815191149711609,0.09576398879289627
1743927033605066000,8.81306591796875,0.31315138936042786,0.17290927469730377,0.08596158772706985
1743927033615111200,8.823111083984376,0.2900082767009735,0.20995810627937317,0.07953138649463654
1743927033625157000,8.8331572265625,0.24197910726070404,0.20248660445213318,0.09944960474967957
1743927033635202000,8.8432021484375,0.1759694516658783,0.17403525114059448,0.14188815653324127
1743927033645248300,8.853248291015625,0.12525327503681183,0.09681401401758194,0.19230571389198303
1743927033655294200,8.863294189453125,0.10102224349975586,0.029083969071507454,0.24063941836357117
1743927033665339000,8.8733388671875,0.10241887718439102,-0.013158799149096012,0.28843218088150024
1743927033675385000,8.883385009765625,0.09461155533790588,0.015139417722821236,0.32305246591567993
1743927033685430000,8.893429931640625,0.07727687805891037,0.0935966819524765,0.34912168979644775
1743927033695476000,8.90347607421875,0.0576496496796608,0.20221929252147675,0.37166666984558105
1743927033705522200,8.913522216796874,0.06520926207304001,0.41275790333747864,0.37629908323287964
1743927033715567000,8.923567138671874,0.12035799771547318,0.6749860644340515,0.3409925103187561
1743927033725613000,8.933613037109374,0.2020891308784485,0.780825138092041,0.2598099112510681
1743927033735658200,8.943658203125,0.2712423503398895,0.6908925771713257,0.14785994589328766
1743927033745704200,8.9537041015625,0.284697949886322,0.4711569845676422,0.03980502486228943
1743927033755750100,8.963750244140625,0.25535550713539124,0.19130562245845795,-0.033151473850011826
1743927033765795000,8.973795166015625,0.19457194209098816,-0.062434032559394836,-0.028826698660850525
1743927033775841000,8.983841064453125,0.14466536045074463,-0.2605668306350708,0.032498978078365326
1743927033785887000,8.993886962890626,0.13084958493709564,-0.39199042320251465,0.1313144862651825
1743927033795932200,9.00393212890625,0.1534574329853058,-0.43570834398269653,0.2386808842420578
1743927033805978000,9.01397802734375,0.197342649102211,-0.4502710998058319,0.34719109535217285
1743927033816023000,9.02402294921875,0.2597269117832184,-0.4675142765045166,0.43317604064941406
1743927033826069000,9.034069091796875,0.31981608271598816,-0.48292648792266846,0.47048020362854004
1743927033836115200,9.044115234375,0.35296550393104553,-0.48882856965065,0.46671369671821594
1743927033846160100,9.05416015625,0.3551690876483917,-0.49127450585365295,0.42275670170783997
1743927033856206000,9.0642060546875,0.33447954058647156,-0.5054009556770325,0.35774919390678406
1743927033866251000,9.0742509765625,0.3067956268787384,-0.5137702226638794,0.28596732020378113
1743927033876297000,9.084296875,0.2844698131084442,-0.5167564153671265,0.21526092290878296
1743927033886343000,9.094343017578124,0.253017395734787,-0.48302674293518066,0.14814577996730804
1743927033896388000,9.10438818359375,0.21936410665512085,-0.42023980617523193,0.08763184398412704
1743927033906434000,9.11443408203125,0.18129724264144897,-0.33189842104911804,0.03731223940849304
1743927033916480000,9.12447998046875,0.1289333701133728,-0.26004207134246826,-0.0018367620650678873
1743927033926524700,9.134524658203125,0.06910581886768341,-0.21295985579490662,-0.03910764306783676
1743927033936570600,9.144570556640625,0.006910088937729597,-0.20573285222053528,-0.07425577938556671
1743927033946615600,9.154615478515625,-0.03969652205705643,-0.2122000753879547,-0.11910457164049149
1743927033956661500,9.16466162109375,-0.07766174525022507,-0.18346428871154785,-0.17082448303699493
1743927033966707500,9.17470751953125,-0.11777433007955551,-0.13702929019927979,-0.22623099386692047
1743927033976752600,9.184752685546876,-0.14980711042881012,-0.10433606803417206,-0.26226410269737244
1743927033986798600,9.194798583984374,-0.17877542972564697,-0.05301809683442116,-0.28736910223960876
1743927033996843500,9.204843505859374,-0.19248299300670624,-0.007106797769665718,-0.3205486238002777
1743927034006889500,9.214889404296875,-0.1822897493839264,0.03316350653767586,-0.3661085367202759
1743927034016935700,9.224935791015625,-0.1528245359659195,0.05379927530884743,-0.42994609475135803
1743927034026980600,9.234980712890625,-0.12029062956571579,0.03126533329486847,-0.4914475977420807
1743927034037026600,9.245026611328125,-0.10286849737167358,-0.014980724081397057,-0.5441110730171204
1743927034047071500,9.255071533203125,-0.09707459807395935,-0.08465937525033951,-0.5860792994499207
1743927034057117400,9.265117431640626,-0.10675571858882904,-0.14374080300331116,-0.608087420463562
1743927034067163400,9.275163330078126,-0.12997151911258698,-0.16716012358665466,-0.5874224901199341
1743927034077208600,9.28520849609375,-0.14476777613162994,-0.1567828506231308,-0.5163030624389648
1743927034087254500,9.295254638671874,-0.1665884107351303,-0.10214079916477203,-0.40483659505844116
1743927034097299500,9.305299560546874,-0.19842037558555603,-0.0227490346878767,-0.2705914378166199
1743927034107345700,9.315345703125,-0.21980135142803192,0.05892305448651314,-0.14844025671482086
1743927034117391600,9.3253916015625,-0.21787534654140472,0.11746226251125336,-0.06239539012312889
1743927034127436500,9.3354365234375,-0.20704615116119385,0.16377416253089905,-0.00421897042542696
1743927034137482800,9.345482666015625,-0.20632150769233704,0.21890266239643097,0.032677263021469116
1743927034147528700,9.35552880859375,-0.21460629999637604,0.2479466050863266,0.0785636305809021
1743927034157573400,9.365573486328126,-0.241453617811203,0.25775742530822754,0.12995359301567078
1743927034167619600,9.37561962890625,-0.27457162737846375,0.24067838490009308,0.1815091222524643
1743927034177664500,9.38566455078125,-0.3042490780353546,0.17786720395088196,0.23344290256500244
1743927034187710500,9.39571044921875,-0.3096863925457001,0.048505574464797974,0.28567853569984436
1743927034197756400,9.40575634765625,-0.275092750787735,-0.08482185751199722,0.31711235642433167
1743927034207801600,9.415801513671875,-0.22861604392528534,-0.17310820519924164,0.32259806990623474
1743927034217847600,9.42584765625,-0.19140049815177917,-0.20686988532543182,0.3022477924823761
1743927034227892700,9.435892822265625,-0.17858336865901947,-0.1771514117717743,0.26305288076400757
1743927034237938700,9.445938720703126,-0.18349823355674744,-0.08375675231218338,0.20907805860042572
1743927034247984600,9.455984619140626,-0.17924416065216064,0.037646085023880005,0.1454181969165802
1743927034258029600,9.466029541015626,-0.15240561962127686,0.16003723442554474,0.06752660125494003
1743927034268075500,9.476075439453124,-0.10579671710729599,0.23931843042373657,-0.019916534423828125
1743927034278120400,9.486120361328124,-0.0463712103664875,0.22952519357204437,-0.10204469412565231
1743927034288166400,9.49616650390625,0.0014707841910421848,0.20272062718868256,-0.1701909452676773
1743927034298212600,9.506212646484375,0.01381693221628666,0.17453745007514954,-0.21644605696201324
1743927034308257500,9.516257568359375,-0.019918758422136307,0.15306027233600616,-0.23638074100017548
1743927034318303500,9.526303466796875,-0.07335987687110901,0.15881162881851196,-0.23689259588718414
1743927034328349700,9.536349609375,-0.14174063503742218,0.1567518711090088,-0.20870599150657654
1743927034338394600,9.54639453125,-0.2115205079317093,0.12048548460006714,-0.1507694572210312
1743927034348440600,9.556440673828124,-0.2925276458263397,0.04927554726600647,-0.060499995946884155
1743927034358485500,9.566485595703124,-0.38179680705070496,-0.0384947843849659,0.05676377937197685
1743927034368531500,9.576531494140625,-0.4700723886489868,-0.07521016895771027,0.17581810057163239
1743927034378577400,9.586577392578125,-0.5175554752349854,-0.07484318315982819,0.271361380815506
1743927034388622600,9.59662255859375,-0.49781280755996704,-0.0590597428381443,0.33644840121269226
1743927034398668500,9.60666845703125,-0.4088328778743744,-0.016706429421901703,0.3569275736808777
1743927034408713500,9.61671337890625,-0.2837187647819519,0.02540869638323784,0.3426748514175415
1743927034418759700,9.626759765625,-0.16444270312786102,0.030207445845007896,0.29697927832603455
1743927034428805600,9.6368056640625,-0.07569733262062073,-0.006261744536459446,0.26050466299057007
1743927034438850600,9.6468505859375,-0.03774063289165497,-0.06605929881334305,0.26684245467185974
1743927034448896800,9.656896728515624,-0.028342772275209427,-0.08450529724359512,0.29685935378074646
1743927034458942500,9.6669423828125,-0.0495162308216095,-0.08474098145961761,0.3655664920806885
1743927034468987400,9.6769873046875,-0.09903301298618317,-0.09495486319065094,0.4660961627960205
1743927034479033300,9.687033447265625,-0.16153500974178314,-0.12079205363988876,0.5604572892189026
1743927034489078500,9.69707861328125,-0.21017713844776154,-0.1125987246632576,0.596623957157135
1743927034499124500,9.70712451171875,-0.2315434068441391,-0.07664764672517776,0.5517326593399048
1743927034509170400,9.71717041015625,-0.1982952505350113,-0.05808117613196373,0.4529663622379303
1743927034519215600,9.727215576171876,-0.13368242979049683,-0.031104953959584236,0.31288596987724304
1743927034529261600,9.737261474609374,-0.07324107736349106,0.007736459374427795,0.16090796887874603
1743927034539306800,9.747306640625,-0.03046591579914093,0.03786799684166908,0.028727296739816666
1743927034549352700,9.757352783203125,-0.010365643538534641,0.011703851632773876,-0.07335075736045837
1743927034559398700,9.767398681640625,-0.00010448414832353592,-0.06578774750232697,-0.13997557759284973
1743927034569443600,9.777443603515625,-0.0015049115754663944,-0.15220050513744354,-0.17502202093601227
1743927034579489500,9.787489501953125,-0.01506572775542736,-0.22464807331562042,-0.19355948269367218
1743927034589535500,9.797535400390625,-0.052352070808410645,-0.2762971520423889,-0.2249678373336792
1743927034599580400,9.807580322265625,-0.10875330120325089,-0.28913599252700806,-0.2781069278717041
1743927034609626600,9.817626708984376,-0.14433716237545013,-0.24764899909496307,-0.3421984910964966
1743927034619671600,9.827671630859374,-0.1488938331604004,-0.16348698735237122,-0.4187774360179901
1743927034629717500,9.837717529296874,-0.13002783060073853,-0.08439600467681885,-0.49402251839637756
1743927034639763700,9.847763671875,-0.10697603970766068,-0.031131990253925323,-0.5375073552131653
1743927034649808600,9.85780859375,-0.0882909744977951,0.013542351312935352,-0.5572101473808289
1743927034659854600,9.8678544921875,-0.06907439976930618,0.05783205106854439,-0.5361543893814087
1743927034669899500,9.8778994140625,-0.058406099677085876,0.07855237275362015,-0.473876953125
1743927034679945500,9.887945556640625,-0.05444171652197838,0.10542047023773193,-0.386305034160614
1743927034689991400,9.897991455078126,-0.04772450029850006,0.13601137697696686,-0.2818105220794678
1743927034700036600,9.90803662109375,-0.056173909455537796,0.15503674745559692,-0.18162477016448975
1743927034710082600,9.91808251953125,-0.06764417886734009,0.16129539906978607,-0.10580307990312576
1743927034720127500,9.92812744140625,-0.07168286293745041,0.10206109285354614,-0.06535792350769043
1743927034730173700,9.938173583984375,-0.06953659653663635,0.005997302941977978,-0.06684303283691406
1743927034740219600,9.9482197265625,-0.06886574625968933,-0.08397013694047928,-0.09369488805532455
1743927034750264600,9.9582646484375,-0.0641254186630249,-0.1603681594133377,-0.12896983325481415
1743927034760310500,9.968310546875,-0.06356695294380188,-0.20621927082538605,-0.15282216668128967
1743927034770356500,9.9783564453125,-0.04953502118587494,-0.21124012768268585,-0.15966489911079407
1743927034780401400,9.9884013671875,-0.029551193118095398,-0.19187414646148682,-0.14937764406204224
1743927034790447400,9.998447265625,-0.0034877124708145857,-0.13748010993003845,-0.12478583306074142
1743927034800492500,10.008492431640626,0.029179418459534645,-0.04375468194484711,-0.08788933604955673
1743927034810538500,10.01853857421875,0.06199536472558975,0.06396924704313278,-0.04351542890071869
1743927034820584400,10.02858447265625,0.09122009575366974,0.1666564643383026,0.00017399434000253677
1743927034830629600,10.038629638671875,0.11133509874343872,0.223491832613945,0.041121531277894974
1743927034840675600,10.048675537109375,0.11402488499879837,0.2134128361940384,0.07485952228307724
1743927034850720800,10.058720703125,0.1037023589015007,0.17312052845954895,0.10792266577482224
1743927034860766700,10.0687666015625,0.08438991755247116,0.13473452627658844,0.12601351737976074
1743927034870812400,10.0788125,0.07636042684316635,0.13271178305149078,0.11286457628011703
1743927034880857300,10.088857421875,0.08437786996364594,0.13580690324306488,0.07864189147949219
1743927034890903600,10.098903564453124,0.11107028275728226,0.12856973707675934,0.03284243121743202
1743927034900948500,10.108948486328124,0.16011425852775574,0.1279715895652771,-0.010167083702981472
1743927034910994400,10.118994384765625,0.21073217689990997,0.0897790864109993,-0.025224456563591957
1743927034921040600,10.12904052734375,0.2508186101913452,0.03435470536351204,-0.013037565164268017
1743927034931085300,10.139085205078125,0.29253989458084106,-0.019543759524822235,0.001944463700056076
1743927034941131300,10.14913134765625,0.3235635757446289,-0.0917375236749649,0.03964976221323013
1743927034951177500,10.159177490234375,0.3273302912712097,-0.17208389937877655,0.10060947388410568
1743927034961222400,10.169222412109375,0.29154834151268005,-0.22532102465629578,0.19828197360038757
1743927034971268400,10.179268310546876,0.2106783092021942,-0.23162101209163666,0.3381597697734833
1743927034981313500,10.1893134765625,0.09640073031187057,-0.2188468873500824,0.5223000645637512
1743927034991359500,10.199359375,-0.015612877905368805,-0.17916032671928406,0.6947253346443176
1743927035001405400,10.209405517578125,-0.08689318597316742,-0.0760086327791214,0.7908023595809937
1743927035011450600,10.21945068359375,-0.0647500604391098,0.05052746832370758,0.7937869429588318
1743927035021496600,10.22949658203125,0.03765567019581795,0.1759708672761917,0.6851726174354553
1743927035031541200,10.239541259765625,0.16643014550209045,0.2854798436164856,0.4724509119987488
1743927035041587500,10.24958740234375,0.2743736803531647,0.36013010144233704,0.20420482754707336
1743927035051633400,10.25963330078125,0.34632551670074463,0.3672410845756531,-0.04498359560966492
1743927035061678300,10.26967822265625,0.3792584240436554,0.3251889646053314,-0.20072950422763824
1743927035071724300,10.279724365234374,0.390131413936615,0.2804165482521057,-0.27736353874206543
1743927035081770500,10.2897705078125,0.39893317222595215,0.24487026035785675,-0.28001660108566284
1743927035091815400,10.2998154296875,0.417889803647995,0.20589827001094818,-0.24744980037212372
1743927035101861400,10.309861328125,0.4492916762828827,0.1744718998670578,-0.19344808161258698
1743927035111906600,10.319906494140625,0.47184449434280396,0.11656211316585541,-0.10904411971569061
1743927035121952500,10.329952392578125,0.48459702730178833,0.04317231848835945,-0.0034420574083924294
1743927035131998500,10.33999853515625,0.4837058186531067,-0.05030469968914986,0.12246693670749664
1743927035142043400,10.35004345703125,0.45810461044311523,-0.1807231605052948,0.2627990245819092
1743927035152089300,10.36008935546875,0.4082391858100891,-0.3261556625366211,0.39849570393562317
1743927035162134500,10.370134521484376,0.35380256175994873,-0.4258319139480591,0.4948757588863373
1743927035172180500,10.380180419921874,0.3213772773742676,-0.4499290883541107,0.5337432622909546
1743927035182226400,10.390226318359375,0.32094213366508484,-0.40776297450065613,0.5289410352706909
1743927035192271400,10.400271240234375,0.3500373363494873,-0.2956506311893463,0.47551000118255615
1743927035202317600,10.410317626953125,0.38430503010749817,-0.16724365949630737,0.3874829411506653
1743927035212363500,10.420363525390625,0.3979034125804901,-0.07437289506196976,0.28589940071105957
1743927035222408400,10.430408447265625,0.38255056738853455,-0.016612129285931587,0.18811959028244019
1743927035232454700,10.44045458984375,0.3308386206626892,0.04470369592308998,0.10556824505329132
1743927035242499300,10.450499267578126,0.23329634964466095,0.10815829783678055,0.019365983083844185
1743927035252545300,10.460545166015624,0.1649605929851532,0.16057616472244263,-0.08331026136875153
1743927035262591500,10.470591552734374,0.07660383731126785,0.16048163175582886,-0.19692523777484894
1743927035272636400,10.480636474609375,-0.022941237315535545,0.1343945562839508,-0.30923929810523987
1743927035282682400,10.490682373046875,-0.11301520466804504,0.10202944278717041,-0.4005204737186432
1743927035292727600,10.5007275390625,-0.15868204832077026,0.06409921497106552,-0.46252962946891785
1743927035302773500,10.5107734375,-0.17036320269107819,-0.006350985262542963,-0.5001286864280701
1743927035312819500,10.5208193359375,-0.17673420906066895,-0.06193213909864426,-0.498346209526062
1743927035322864600,10.53086474609375,-0.17437651753425598,-0.06015261262655258,-0.4639139473438263
1743927035332910600,10.54091064453125,-0.1524972915649414,0.016878027468919754,-0.4088311493396759
1743927035342955300,10.550955322265626,-0.10256513953208923,0.10470641404390335,-0.34193041920661926
1743927035353001500,10.56100146484375,-0.02810051292181015,0.1514202356338501,-0.2726238965988159
1743927035363047400,10.57104736328125,0.06539588421583176,0.15375636518001556,-0.22028373181819916
1743927035373092400,10.58109228515625,0.15405437350273132,0.12320937216281891,-0.19019560515880585
1743927035383138300,10.59113818359375,0.1907695084810257,0.06466355919837952,-0.16661018133163452
1743927035393184500,10.6011845703125,0.1793423444032669,0.0013083238154649734,-0.13208158314228058
1743927035403229400,10.6112294921875,0.12759631872177124,-0.07270199060440063,-0.08537187427282333
1743927035413275400,10.621275390625,0.047202907502651215,-0.13472411036491394,-0.0490247905254364
1743927035423320600,10.631320556640626,-0.03815753012895584,-0.17343369126319885,-0.03360562026500702
1743927035433366500,10.641366455078124,-0.12425823509693146,-0.2028832882642746,-0.043134354054927826
1743927035443412500,10.65141259765625,-0.19449485838413239,-0.20566734671592712,-0.057993195950984955
1743927035453457400,10.66145751953125,-0.25050389766693115,-0.16645695269107819,-0.0810011699795723
1743927035463503400,10.67150341796875,-0.27005815505981445,-0.0689714103937149,-0.1260908842086792
1743927035473548300,10.68154833984375,-0.24926412105560303,0.02263714373111725,-0.2105979323387146
1743927035483594500,10.691594482421875,-0.21830300986766815,0.009818018414080143,-0.306691974401474
1743927035493640400,10.701640380859375,-0.1925676017999649,-0.07953862845897675,-0.38339853286743164
1743927035503685400,10.711685302734375,-0.1959892362356186,-0.2099943608045578,-0.3937150835990906
1743927035513731600,10.721731689453126,-0.23848238587379456,-0.3193674087524414,-0.3298429548740387
1743927035523776500,10.731776611328126,-0.30024853348731995,-0.40056106448173523,-0.22227734327316284
1743927035533822500,10.741822509765624,-0.3629474937915802,-0.4460654854774475,-0.0959799587726593
1743927035543868400,10.751868408203125,-0.4163643717765808,-0.41039881110191345,0.013343069702386856
1743927035553913300,10.761913330078125,-0.45676788687705994,-0.3016354739665985,0.09949086606502533
1743927035563959300,10.771959228515625,-0.45038294792175293,-0.11115901172161102,0.16314494609832764
1743927035574005200,10.782005126953125,-0.3612270653247833,0.10273759067058563,0.20098979771137238
1743927035584050400,10.792050537109375,-0.1975710242986679,0.23335179686546326,0.21132685244083405
1743927035594096400,10.802096435546876,-0.013240035623311996,0.2241937667131424,0.18972741067409515
1743927035604141600,10.8121416015625,0.13300025463104248,0.11548139899969101,0.16879576444625854
1743927035614187500,10.8221875,0.19079603254795074,-0.03329188749194145,0.17298497259616852
1743927035624233500,10.8322333984375,0.14818412065505981,-0.14347006380558014,0.21326874196529388
1743927035634278700,10.842278564453125,0.040675029158592224,-0.19011034071445465,0.24314460158348083
1743927035644324600,10.85232470703125,-0.1154479905962944,-0.1976683884859085,0.2608652710914612
1743927035654369300,10.862369384765625,-0.2196984589099884,-0.159431591629982,0.23907314240932465
1743927035664415200,10.872415283203125,-0.3201369047164917,-0.07350736111402512,0.23004236817359924
1743927035674461400,10.88246142578125,-0.41065728664398193,0.14420804381370544,0.22365951538085938
1743927035684506400,10.89250634765625,-0.45522210001945496,0.3909217119216919,0.20734524726867676
1743927035694552300,10.90255224609375,-0.38080400228500366,0.5698137283325195,0.15789100527763367
1743927035704598500,10.9125986328125,-0.22966958582401276,0.5980850458145142,0.1175350546836853
1743927035714643500,10.9226435546875,-0.09059751778841019,0.49394240975379944,0.12152162194252014
1743927035724689400,10.932689453125,-0.007188646588474512,0.31668826937675476,0.15723462402820587
1743927035734734600,10.942734619140625,0.004426553379744291,0.13762043416500092,0.20888614654541016
1743927035744780500,10.952780517578125,-0.02564266510307789,-0.003014189191162586,0.25031372904777527
1743927035754826500,10.962826416015625,-0.0746888667345047,-0.0917777344584465,0.25776398181915283
1743927035764871400,10.972871337890625,-0.11369884759187698,-0.13871647417545319,0.241782084107399
1743927035774917400,10.98291748046875,-0.14232467114925385,-0.1474970281124115,0.22017565369606018
1743927035784962300,10.99296240234375,-0.16455140709877014,-0.12638507783412933,0.2154293656349182
1743927035795008500,11.003008544921874,-0.18926794826984406,-0.0953197255730629,0.24860955774784088
1743927035805054500,11.013054443359374,-0.19362221658229828,-0.0753803700208664,0.31373634934425354
1743927035815099400,11.023099365234375,-0.1627456694841385,-0.07251577079296112,0.4126286208629608
1743927035825145600,11.0331455078125,-0.10608743876218796,-0.04597657173871994,0.5252310633659363
1743927035835191600,11.043191650390625,-0.05038852244615555,0.006256233435124159,0.6014776229858398
1743927035845236500,11.053236572265625,-0.01923166960477829,-0.00010472675785422325,0.6320174336433411
1743927035855282400,11.063282470703125,-0.02401253767311573,-0.04744242876768112,0.5951452255249023
1743927035865327400,11.073327392578125,-0.029835538938641548,-0.12196273356676102,0.4939075708389282
1743927035875373300,11.083373291015626,0.019470468163490295,-0.20989535748958588,0.35143303871154785
1743927035885419300,11.093419189453124,0.0625913068652153,-0.29671362042427063,0.16124817728996277
1743927035895464400,11.10346435546875,0.057397183030843735,-0.28470268845558167,-0.04550213739275932
1743927035905510400,11.113510498046875,0.03456989675760269,-0.18183009326457977,-0.24489566683769226
1743927035915555600,11.1235556640625,0.03562773019075394,-0.11142268031835556,-0.39846521615982056
1743927035925601500,11.1336015625,0.03981608524918556,-0.10269203782081604,-0.505942165851593
1743927035935648000,11.14364794921875,0.047212809324264526,-0.10014677792787552,-0.5891072750091553
1743927035945693000,11.15369287109375,0.03158245235681534,-0.02240670658648014,-0.6258540749549866
1743927035955739100,11.1637392578125,-0.019208047538995743,0.09049178659915924,-0.6331756711006165
1743927035965785000,11.17378515625,-0.0686296597123146,0.14579232037067413,-0.6164574027061462
